Data from Subt4__33__33.txt Node

Date: Fri Jun 07 14:39:31 CEST 2024
User: Naturwissenschaft
Spectrometer: FLMS00572
Trigger mode: 0
Integration Time (sec): 5,000000E-2
Scans to average: 20
Electric dark correction enabled: true
Nonlinearity correction enabled: false
Boxcar width: 5
XAxis mode: Wavelengths
Number of Pixels in Spectrum: 2048
>>>>>Begin Spectral Data<<<<<
190,164	-9,02
190,544	-6,76
190,925	-5,99
191,306	-4,54
191,687	-4,62
192,067	-5,34
192,448	-4,02
192,829	-2,76
193,209	-1,8
193,59	-2,66
193,97	-1,6
194,351	-1,28
194,731	-0,85
195,112	-0,63
195,492	-1,28
195,872	-0,53
196,253	1,63
196,633	3,38
197,013	3,38
197,393	4,2
197,773	6,01
198,154	4,47
198,534	4,14
198,914	2,22
199,294	0,71
199,674	-0,03
200,054	-0,04
200,434	-1,57
200,814	-2,11
201,194	-4,04
201,573	-3,92
201,953	-7,82
202,333	-8,99
202,713	-7,72
203,092	-7,2
203,472	-6,26
203,852	-4,34
204,231	-4,1
204,611	-3,02
204,99	-5
205,37	-4,27
205,749	-3,6
206,129	0,42
206,508	4,32
206,887	3,06
207,267	1,16
207,646	1,85
208,025	0,87
208,405	0,57
208,784	-0,34
209,163	3,08
209,542	5,42
209,921	3,57
210,3	4,78
210,679	2,87
211,058	3,22
211,437	6,63
211,816	7,69
212,195	6,99
212,574	7,24
212,952	8,12
213,331	4,87
213,71	3,71
214,089	3,85
214,467	2,23
214,846	2,89
215,225	1,61
215,603	-1,21
215,982	-1,8
216,36	-0,83
216,739	-2,41
217,117	-2,58
217,495	-1,91
217,874	-2,25
218,252	-3,77
218,63	-4,31
219,009	-4,46
219,387	-3,98
219,765	-1,64
220,143	-3,09
220,521	-2,79
220,899	-2,29
221,277	-2,91
221,655	-2,69
222,033	-3,85
222,411	-0,95
222,789	-2,38
223,167	-1,53
223,545	-0,88
223,923	-0,12
224,301	0,4
224,678	-1,17
225,056	-0,39
225,434	0,31
225,811	1,49
226,189	1,93
226,566	0,06
226,944	2,61
227,321	1,53
227,699	2,58
228,076	1,89
228,454	1,6
228,831	3,76
229,208	3,22
229,586	1,64
229,963	0,26
230,34	1,92
230,717	4,38
231,094	3,45
231,471	3,48
231,848	2,15
232,225	-0,71
232,602	-0,29
232,979	-1,95
233,356	-1,75
233,733	-1,45
234,11	-3,44
234,487	-3,43
234,864	-5,27
235,24	-4,4
235,617	-4,36
235,994	-4,68
236,37	-2,84
236,747	-2,57
237,124	-1,72
237,5	-2,41
237,877	-2,57
238,253	-0,02
238,63	0,63
239,006	3,65
239,382	2,71
239,759	3,55
240,135	3,7
240,511	5,25
240,887	5,52
241,264	4,29
241,64	3,38
242,016	4,81
242,392	4,44
242,768	3,12
243,144	0,11
243,52	0,4
243,896	0,67
244,272	1,14
244,648	-0,06
245,023	0,41
245,399	2,46
245,775	4,21
246,151	3,89
246,526	4,62
246,902	3,71
247,278	2,11
247,653	-0,32
248,029	-1,77
248,404	-1,49
248,78	-1,49
249,155	-3,06
249,53	-4,93
249,906	-4,25
250,281	-3,45
250,656	-1,72
251,032	-1,1
251,407	1
251,782	4,03
252,157	3,19
252,532	3,11
252,907	3,24
253,282	3,23
253,657	4,38
254,032	4,1
254,407	3,87
254,782	2,09
255,157	2,37
255,532	2,48
255,907	2,28
256,281	3,41
256,656	3,94
257,031	4,87
257,405	4,41
257,78	3,52
258,155	4,49
258,529	5,75
258,904	5,76
259,278	5,94
259,652	6,52
260,027	5,91
260,401	7,39
260,775	7,68
261,15	8,19
261,524	8,7
261,898	9,97
262,272	8,13
262,646	5,26
263,021	3,67
263,395	5,27
263,769	2,75
264,143	3,56
264,517	0,61
264,89	-0,87
265,264	-4,4
265,638	-4,1
266,012	-4,53
266,386	-5,53
266,76	-6,4
267,133	-5,36
267,507	-8,3
267,88	-7,54
268,254	-7,6
268,628	-6,67
269,001	-5,65
269,375	-2,88
269,748	-1,68
270,121	-1,89
270,495	0,31
270,868	0,96
271,241	-0,15
271,615	0,75
271,988	0,7
272,361	0,54
272,734	0,88
273,107	1,8
273,48	0,21
273,853	-1,92
274,226	-2,33
274,599	-4,56
274,972	-3,25
275,345	-1,37
275,718	0,57
276,091	1,88
276,464	2,56
276,836	2,93
277,209	3,51
277,582	3,96
277,954	6
278,327	6,22
278,7	7,94
279,072	8,8
279,445	5,63
279,817	3,96
280,189	3,34
280,562	2,87
280,934	2,97
281,306	2,35
281,679	3,19
282,051	3,67
282,423	2,97
282,795	4,05
283,167	4,59
283,539	8,43
283,911	9,71
284,283	9,49
284,655	10,12
285,027	9,46
285,399	9,79
285,771	10,37
286,143	9,19
286,515	9,7
286,886	8,74
287,258	6,08
287,63	4,93
288,001	2,41
288,373	4,7
288,745	2,15
289,116	1,31
289,488	-1,27
289,859	-2,74
290,23	-5,44
290,602	-5,24
290,973	-5,66
291,344	-3,71
291,716	-5,41
292,087	-4,04
292,458	-4,49
292,829	-4,55
293,2	-3,4
293,571	-2,71
293,942	-2,93
294,313	0,03
294,684	2,57
295,055	1
295,426	-0,39
295,797	2,33
296,168	3,92
296,539	2,71
296,909	4,67
297,28	5,89
297,651	5,56
298,021	5,08
298,392	5,62
298,763	3,23
299,133	4,77
299,503	6,33
299,874	2,76
300,244	0,07
300,615	-1,63
300,985	-2,04
301,355	-3,96
301,726	-2,67
302,096	-1
302,466	-1,3
302,836	-2,52
303,206	-1,13
303,576	-0,94
303,946	1,69
304,316	2,31
304,686	4,83
305,056	4,53
305,426	5,1
305,796	4,47
306,166	1,68
306,535	2,1
306,905	3,27
307,275	1,93
307,644	1,7
308,014	1,5
308,383	3,01
308,753	0,7
309,122	0,44
309,492	-0,55
309,861	0,36
310,231	3,48
310,6	1,54
310,969	1,93
311,339	3,05
311,708	0,51
312,077	-0,15
312,446	-1,43
312,815	-2,27
313,184	-2,73
313,553	-2,76
313,922	-2,47
314,291	-2,1
314,66	1,33
315,029	0,95
315,398	-1,1
315,767	0,21
316,136	-1,75
316,504	-1,78
316,873	1,06
317,242	1,16
317,61	1,5
317,979	-0,56
318,347	-2,12
318,716	-6,72
319,084	-5,59
319,453	-3,75
319,821	-0,65
320,189	3,29
320,558	3,56
320,926	1,89
321,294	2,03
321,662	2,5
322,031	2,55
322,399	3,09
322,767	6,77
323,135	6,3
323,503	6,03
323,871	4,12
324,239	3,42
324,607	3,4
324,974	6,73
325,342	7,73
325,71	7,52
326,078	9,44
326,445	11,3
326,813	9,36
327,181	7,65
327,548	8,7
327,916	8,97
328,283	7,41
328,651	6,49
329,018	3,37
329,385	2,59
329,753	3,23
330,12	2,06
330,487	-1,69
330,855	-1,3
331,222	-2,9
331,589	-4,41
331,956	-4,77
332,323	-4,59
332,69	-3,2
333,057	-1,7
333,424	-3,31
333,791	-2,5
334,158	-5,26
334,525	-3,22
334,892	-3,37
335,258	-2,82
335,625	-3,42
335,992	-3,97
336,358	-4,66
336,725	-4,7
337,091	-5,26
337,458	-3,4
337,824	-4,19
338,191	-2,97
338,557	-4,53
338,924	-6,07
339,29	-2,64
339,656	-1,94
340,023	-3,78
340,389	-2,23
340,755	-3,23
341,121	-1,64
341,487	-2,39
341,853	-1,88
342,219	1,08
342,585	2,86
342,951	3,41
343,317	1,1
343,683	2,66
344,049	3,13
344,415	2,95
344,78	2,9
345,146	2,76
345,512	3,17
345,877	4,03
346,243	2,31
346,608	3,22
346,974	5,77
347,339	7,76
347,705	5,76
348,07	4,74
348,436	5,12
348,801	7,55
349,166	4,47
349,531	5,12
349,897	4,15
350,262	4,26
350,627	1,93
350,992	2,23
351,357	1,53
351,722	1,6
352,087	3,68
352,452	2,69
352,817	-1,47
353,181	0,67
353,546	-0,17
353,911	-2,88
354,276	-1,04
354,64	0,07
355,005	-1,49
355,37	-2,13
355,734	-2,57
356,099	-2,6
356,463	-1,59
356,828	2,33
357,192	0,38
357,556	0,14
357,921	1,95
358,285	0,62
358,649	1,92
359,013	3,72
359,378	3,66
359,742	4,14
360,106	5,09
360,47	6,49
360,834	6,03
361,198	5,54
361,562	5,78
361,926	5,75
362,289	6,91
362,653	7,52
363,017	5,06
363,381	5,45
363,744	6,99
364,108	8,32
364,472	6,75
364,835	6,26
365,199	8,97
365,562	8,01
365,926	6,59
366,289	5,22
366,652	4,32
367,016	6,06
367,379	6,48
367,742	5,32
368,105	5,2
368,469	4,67
368,832	4,78
369,195	4,88
369,558	5,81
369,921	5,37
370,284	4,73
370,647	3,83
371,01	1,51
371,372	0,21
371,735	1,64
372,098	-1,35
372,461	-3,76
372,823	-3,73
373,186	-4,04
373,549	-4,76
373,911	-2,66
374,274	-2,39
374,636	-2,7
374,999	-2,5
375,361	-2,31
375,723	-3,67
376,086	-1,49
376,448	0,98
376,81	0,71
377,172	-1,68
377,535	0,58
377,897	0,08
378,259	-0,62
378,621	-1,58
378,983	-1,71
379,345	0,01
379,707	-0,87
380,068	-1,77
380,43	0,12
380,792	-0,97
381,154	0,76
381,516	-0,21
381,877	1,35
382,239	2,12
382,6	5,15
382,962	8,48
383,323	7,38
383,685	8,04
384,046	7,73
384,408	7,84
384,769	9,05
385,13	10,59
385,492	10,16
385,853	8,78
386,214	10,12
386,575	6,41
386,936	2,06
387,297	1,43
387,658	3,41
388,019	5,47
388,38	4,16
388,741	3,91
389,102	2,03
389,463	2,35
389,823	2,31
390,184	1,54
390,545	2,73
390,906	3,53
391,266	4,48
391,627	1,67
391,987	2,06
392,348	3,37
392,708	2,89
393,069	5,3
393,429	4,18
393,789	5,02
394,15	4,83
394,51	5,53
394,87	7,17
395,23	7,59
395,59	7,8
395,95	5,21
396,31	3,2
396,67	3,35
397,03	2,28
397,39	5,02
397,75	4,5
398,11	3,3
398,47	2,79
398,829	3,24
399,189	3,21
399,549	4,09
399,908	5,1
400,268	6,02
400,627	5,12
400,987	3,51
401,346	0,43
401,706	4,5
402,065	11,07
402,424	24,17
402,784	59,33
403,143	152,9
403,502	345,14
403,861	585,02
404,221	761,5
404,58	872,26
404,939	936,62
405,298	969,83
405,657	976,97
406,015	973,88
406,374	963,11
406,733	928,25
407,092	836,37
407,451	647,2
407,809	407,54
408,168	230,06
408,527	120,66
408,885	59,1
409,244	28,13
409,602	17,58
409,961	15,51
410,319	14,11
410,678	14,82
411,036	11,2
411,394	8,95
411,752	6,38
412,111	9,06
412,469	8,1
412,827	7,79
413,185	7,3
413,543	7,3
413,901	7,22
414,259	7,41
414,617	8,06
414,975	10,21
415,333	8,79
415,69	8,13
416,048	6,07
416,406	6,99
416,763	6,85
417,121	7,07
417,479	7,33
417,836	8,01
418,194	7,22
418,551	3,7
418,909	2,78
419,266	5,11
419,623	9,51
419,981	9,92
420,338	11,01
420,695	10,73
421,052	11,3
421,409	10,8
421,766	11,6
422,123	11,09
422,48	13,9
422,837	16,97
423,194	15,42
423,551	13,93
423,908	12,62
424,265	13,92
424,621	13,03
424,978	14,63
425,335	17,55
425,691	16,13
426,048	20,23
426,404	20,39
426,761	18,83
427,117	19,26
427,474	20,79
427,83	20,96
428,186	19,84
428,543	21,98
428,899	21,49
429,255	18,45
429,611	21,41
429,967	20,21
430,323	19,75
430,679	18,98
431,035	22,26
431,391	22,2
431,747	25,98
432,103	27
432,459	26,23
432,815	25,87
433,17	29,9
433,526	27,98
433,882	29,01
434,237	30,8
434,593	33,5
434,948	32,96
435,304	33,37
435,659	33,19
436,014	33,11
436,37	37,5
436,725	36,55
437,08	35,43
437,436	38,02
437,791	34,43
438,146	31,76
438,501	30,21
438,856	29,05
439,211	29,47
439,566	28,35
439,921	28,22
440,276	24,36
440,63	24,7
440,985	24,91
441,34	23,68
441,695	26,86
442,049	29,14
442,404	28,28
442,758	29,07
443,113	30,19
443,467	32,49
443,822	31,9
444,176	31,26
444,531	33,14
444,885	31,08
445,239	31,66
445,593	32,03
445,948	32,89
446,302	34,63
446,656	35,51
447,01	36
447,364	34,46
447,718	35,53
448,072	39,17
448,426	38,44
448,779	41,54
449,133	41,19
449,487	41,74
449,841	41,51
450,194	40,01
450,548	40,39
450,902	40,53
451,255	42,84
451,609	45,38
451,962	44,55
452,315	46,29
452,669	46,22
453,022	48,63
453,375	48,1
453,729	48,64
454,082	51,79
454,435	53,03
454,788	52,42
455,141	52,17
455,494	52,05
455,847	51,02
456,2	53,22
456,553	54,17
456,906	53,29
457,258	55,83
457,611	55,32
457,964	55,76
458,316	55,53
458,669	56,5
459,022	54,72
459,374	51,67
459,727	53,94
460,079	52,38
460,432	51,31
460,784	52,37
461,136	51,16
461,488	52,28
461,841	51,91
462,193	54,59
462,545	54,73
462,897	58,8
463,249	63,57
463,601	62,47
463,953	63,59
464,305	65,5
464,657	63,43
465,009	62,79
465,361	63,38
465,712	63,1
466,064	62,42
466,416	62
466,767	59,5
467,119	56,21
467,47	57,23
467,822	57,62
468,173	57,23
468,525	61,04
468,876	63,31
469,227	63,47
469,579	66,72
469,93	64,52
470,281	64,22
470,632	66,9
470,983	67,95
471,334	68,76
471,685	67,38
472,036	68,91
472,387	67,98
472,738	68,32
473,089	67,05
473,44	62,52
473,79	63,09
474,141	64,96
474,492	63,47
474,842	65,73
475,193	68,05
475,543	70,97
475,894	71,57
476,244	73,38
476,595	72,13
476,945	75,85
477,295	80,11
477,645	79,93
477,996	84,7
478,346	86,3
478,696	86,78
479,046	86,23
479,396	87,16
479,746	88,33
480,096	86,57
480,446	89,08
480,796	88,75
481,145	91,13
481,495	92,89
481,845	90,14
482,195	88,6
482,544	90,63
482,894	92,31
483,243	92,05
483,593	90,18
483,942	93,25
484,292	93,34
484,641	93,99
484,99	92,42
485,34	93,49
485,689	93,66
486,038	98,24
486,387	99,36
486,736	97,57
487,085	98,4
487,434	102,53
487,783	102,85
488,132	105,84
488,481	108,73
488,83	110,7
489,179	114,23
489,527	117,05
489,876	118,8
490,225	119,52
490,573	121,78
490,922	124,95
491,27	127,94
491,619	130,52
491,967	134,71
492,316	137,16
492,664	142,32
493,012	145,87
493,361	146,15
493,709	147,8
494,057	151,01
494,405	156,82
494,753	161,26
495,101	163,02
495,449	166,63
495,797	169,61
496,145	175,32
496,493	178,48
496,84	182,28
497,188	191,34
497,536	199,99
497,884	209,4
498,231	216,04
498,579	225,03
498,926	236,43
499,274	248,12
499,621	259,32
499,969	270,32
500,316	286,33
500,663	300
501,01	315,65
501,358	332,52
501,705	351,56
502,052	372,34
502,399	393,07
502,746	414,81
503,093	439
503,44	468,52
503,787	495,44
504,134	524,89
504,481	558,31
504,827	593,25
505,174	627,8
505,521	664,78
505,867	707,62
506,214	752,92
506,56	802,72
506,907	854,54
507,253	902,45
507,6	962,04
507,946	1018,45
508,292	1079,86
508,639	1144,96
508,985	1214,09
509,331	1284,6
509,677	1359,17
510,023	1435,4
510,369	1513,68
510,715	1596,46
511,061	1683,15
511,407	1770,91
511,753	1863,03
512,099	1956,37
512,444	2053,08
512,79	2151,74
513,136	2250,48
513,481	2347,9
513,827	2446,82
514,172	2544,23
514,518	2642,95
514,863	2743,16
515,209	2835,22
515,554	2931,38
515,899	3023,05
516,245	3108,66
516,59	3188,96
516,935	3270,22
517,28	3344,95
517,625	3413,48
517,97	3481,44
518,315	3533,74
518,66	3581,41
519,005	3626,12
519,35	3653,41
519,695	3680,9
520,039	3699,06
520,384	3712,59
520,729	3714,75
521,073	3712,65
521,418	3702,2
521,762	3678,52
522,107	3658,09
522,451	3627,85
522,796	3591,63
523,14	3557,76
523,484	3514,64
523,829	3468,81
524,173	3416,82
524,517	3362,39
524,861	3304,71
525,205	3248,74
525,549	3192
525,893	3131,29
526,237	3070,79
526,581	3008,48
526,925	2945,81
527,269	2883,77
527,612	2822,8
527,956	2765,74
528,3	2708,7
528,643	2651,06
528,987	2593,81
529,33	2540,58
529,674	2486,18
530,017	2434,33
530,36	2388,22
530,704	2340,47
531,047	2296,88
531,39	2253,18
531,733	2213,86
532,077	2170,04
532,42	2131,33
532,763	2093,06
533,106	2053,24
533,449	2020,87
533,792	1987,54
534,134	1953,73
534,477	1924,56
534,82	1891,71
535,163	1860,95
535,505	1828,14
535,848	1804,39
536,191	1776,2
536,533	1750,24
536,876	1727,53
537,218	1701,27
537,56	1679,13
537,903	1655,33
538,245	1631,47
538,587	1609,55
538,93	1589,27
539,272	1566,81
539,614	1545,37
539,956	1527,35
540,298	1508,56
540,64	1490,17
540,982	1474,99
541,324	1456,12
541,666	1441,67
542,007	1425,85
542,349	1412,54
542,691	1399,76
543,032	1388,24
543,374	1376,08
543,716	1363,65
544,057	1354,59
544,398	1346,06
544,74	1335,17
545,081	1327,76
545,423	1318,85
545,764	1310,99
546,105	1302,51
546,446	1294,65
546,787	1286,34
547,128	1279,94
547,469	1275,71
547,81	1268,33
548,151	1262,07
548,492	1258,37
548,833	1257,61
549,174	1257,31
549,515	1258,28
549,855	1259,7
550,196	1259,84
550,537	1261,58
550,877	1262,64
551,218	1264,89
551,558	1268,17
551,899	1270,14
552,239	1273,48
552,579	1276,35
552,92	1276,38
553,26	1276,64
553,6	1278,85
553,94	1282,09
554,28	1287,3
554,62	1292,2
554,96	1294,45
555,3	1299,35
555,64	1305,06
555,98	1308,26
556,32	1309,56
556,66	1317,56
556,999	1327,19
557,339	1335,19
557,679	1344,68
558,018	1354,01
558,358	1362,47
558,697	1376,93
559,037	1389,61
559,376	1403,01
559,715	1419,94
560,055	1438,71
560,394	1456,62
560,733	1475,91
561,072	1495,84
561,411	1517,93
561,75	1544,01
562,089	1572,19
562,428	1598,8
562,767	1633,11
563,106	1668,84
563,445	1704,23
563,784	1743,77
564,122	1783,81
564,461	1827,78
564,8	1876,2
565,138	1927,73
565,477	1980,48
565,815	2040,93
566,154	2103,39
566,492	2167,65
566,83	2237,46
567,169	2310,99
567,507	2393,51
567,845	2484,86
568,183	2579,1
568,521	2677,33
568,859	2783,45
569,197	2895,32
569,535	3010,16
569,873	3134,39
570,211	3264,4
570,549	3398,87
570,887	3544,57
571,224	3688,13
571,562	3837,77
571,9	3994,01
572,237	4158,01
572,575	4328,24
572,912	4505,7
573,25	4685,84
573,587	4871,79
573,924	5059,92
574,262	5251,34
574,599	5448,25
574,936	5652,65
575,273	5856,88
575,61	6064,3
575,947	6271,9
576,284	6481,29
576,621	6687,98
576,958	6898,33
577,295	7104,32
577,632	7308,32
577,969	7515,49
578,305	7708,98
578,642	7890,31
578,979	8073,96
579,315	8250,34
579,652	8416,22
579,988	8573,75
580,325	8720,85
580,661	8848,6
580,997	8962,66
581,334	9072,97
581,67	9162,69
582,006	9234,73
582,342	9306,93
582,678	9348,38
583,014	9379,59
583,35	9399,36
583,686	9397,2
584,022	9379,25
584,358	9355,86
584,694	9325,17
585,029	9269,96
585,365	9203,77
585,701	9129,62
586,036	9038,45
586,372	8947,07
586,707	8841,12
587,043	8722,09
587,378	8588,84
587,714	8457,08
588,049	8314,23
588,384	8162,69
588,719	8008,31
589,054	7854,15
589,39	7700,06
589,725	7536,25
590,06	7371,28
590,395	7206,04
590,729	7046,28
591,064	6887,24
591,399	6726,1
591,734	6569,52
592,069	6412,21
592,403	6261,41
592,738	6109,03
593,073	5957,14
593,407	5813,21
593,742	5671,18
594,076	5529,26
594,41	5391,69
594,745	5260,24
595,079	5131,37
595,413	5006,42
595,747	4883,17
596,081	4763,99
596,416	4647,78
596,75	4536,31
597,084	4427,01
597,418	4322,11
597,751	4218,85
598,085	4117,04
598,419	4025,34
598,753	3930,75
599,086	3840,62
599,42	3755,21
599,754	3668,68
600,087	3586,36
600,421	3510,01
600,754	3437,49
601,088	3366,24
601,421	3300,87
601,754	3232,63
602,088	3167,46
602,421	3108,2
602,754	3048,56
603,087	2991,99
603,42	2934,71
603,753	2882,3
604,086	2832,94
604,419	2780,27
604,752	2732,4
605,085	2683,97
605,417	2640,44
605,75	2597,64
606,083	2557,7
606,415	2517,98
606,748	2481,18
607,08	2448,11
607,413	2413,92
607,745	2378,88
608,078	2352,68
608,41	2321,3
608,742	2293,38
609,074	2268,23
609,407	2239,44
609,739	2208,49
610,071	2182,08
610,403	2155,25
610,735	2130,26
611,067	2107,34
611,399	2086,83
611,73	2060,68
612,062	2038,84
612,394	2020,93
612,726	2000,95
613,057	1986,73
613,389	1973,51
613,72	1959,09
614,052	1946,96
614,383	1936
614,715	1923,72
615,046	1909,72
615,377	1901,46
615,708	1896,21
616,04	1886,86
616,371	1878,76
616,702	1868,83
617,033	1864,04
617,364	1860,17
617,695	1857,53
618,026	1852,73
618,356	1852,5
618,687	1856,75
619,018	1857,95
619,349	1859,29
619,679	1860,27
620,01	1861,49
620,34	1866,94
620,671	1872,7
621,001	1874,55
621,332	1875,86
621,662	1879,21
621,992	1881,59
622,322	1881,48
622,653	1885,57
622,983	1885,82
623,313	1890,44
623,643	1899,11
623,973	1905,49
624,303	1909,79
624,633	1916,78
624,962	1922,68
625,292	1928,03
625,622	1934,36
625,952	1940,03
626,281	1948,04
626,611	1953,85
626,94	1958,72
627,27	1963,25
627,599	1968
627,929	1969,14
628,258	1970,54
628,587	1973,65
628,916	1976,74
629,246	1978,15
629,575	1977,98
629,904	1972,95
630,233	1973,4
630,562	1972,99
630,891	1969,26
631,22	1964,86
631,548	1962,2
631,877	1963,76
632,206	1961,8
632,535	1959,08
632,863	1957,99
633,192	1957,29
633,52	1955,89
633,849	1951,21
634,177	1946,93
634,506	1939,45
634,834	1931,78
635,162	1924,78
635,49	1914,09
635,819	1901,54
636,147	1892,68
636,475	1879,81
636,803	1865,46
637,131	1852,86
637,459	1837,96
637,787	1821,16
638,114	1805,05
638,442	1785,54
638,77	1768,22
639,098	1748,7
639,425	1732,11
639,753	1708,81
640,08	1687,4
640,408	1665,94
640,735	1643,23
641,062	1618,79
641,39	1593,43
641,717	1571,06
642,044	1549,83
642,371	1527,04
642,699	1504,59
643,026	1477,91
643,353	1456,22
643,68	1432,99
644,006	1407,09
644,333	1379,79
644,66	1357,63
644,987	1334,67
645,314	1310,34
645,64	1283,98
645,967	1258,61
646,293	1233,1
646,62	1208,51
646,946	1182,15
647,273	1155,79
647,599	1132,77
647,925	1108,5
648,252	1083,82
648,578	1061,28
648,904	1038,26
649,23	1019,35
649,556	994,74
649,882	972,52
650,208	954,17
650,534	935,58
650,86	914,81
651,185	895,16
651,511	878,47
651,837	862,45
652,162	845,48
652,488	827,35
652,814	807,28
653,139	789,81
653,464	776,69
653,79	761,89
654,115	744,45
654,44	730,57
654,766	717,38
655,091	701,03
655,416	685,05
655,741	667,12
656,066	654,84
656,391	645,28
656,716	635,84
657,041	620,61
657,366	605,04
657,69	595,45
658,015	582,89
658,34	570,64
658,664	563,29
658,989	552,78
659,313	545,49
659,638	534,94
659,962	523,52
660,286	512,24
660,611	503,79
660,935	496,44
661,259	484,25
661,583	478,15
661,907	470,86
662,231	458,49
662,555	449,84
662,879	440,58
663,203	432,32
663,527	424,72
663,851	420,44
664,175	413,25
664,498	406,56
664,822	403,6
665,145	395,97
665,469	389,78
665,792	385,82
666,116	379,4
666,439	375,88
666,763	369,35
667,086	363,1
667,409	354,95
667,732	349,61
668,055	344,74
668,378	339,13
668,701	334,9
669,024	330,04
669,347	326,68
669,67	323,96
669,993	318,02
670,316	313,98
670,638	309,74
670,961	306,11
671,283	300,71
671,606	295,62
671,928	289,27
672,251	284,39
672,573	281,47
672,896	276,69
673,218	272,99
673,54	270,38
673,862	267,39
674,184	264,55
674,506	261,57
674,828	260,88
675,15	259
675,472	256,81
675,794	254,46
676,116	252,54
676,438	247,83
676,759	247,01
677,081	245,02
677,403	245,39
677,724	241,33
678,046	238,89
678,367	233,3
678,689	230,65
679,01	227,09
679,331	225,51
679,652	223,39
679,974	223,32
680,295	218,66
680,616	216,24
680,937	212,6
681,258	212,82
681,579	213,66
681,9	212,02
682,22	210,07
682,541	211,72
682,862	207,56
683,183	204,42
683,503	202,62
683,824	202,94
684,144	199,77
684,465	199,54
684,785	197,58
685,105	194,29
685,426	196,24
685,746	195,6
686,066	195,18
686,386	195,84
686,706	193,62
687,026	192,31
687,346	191,4
687,666	191,17
687,986	188,55
688,306	190,18
688,626	189,93
688,945	187,78
689,265	186,33
689,585	183,46
689,904	181,63
690,224	182,38
690,543	181,18
690,862	178,95
691,182	175,58
691,501	174,36
691,82	169,5
692,139	164,48
692,459	161,94
692,778	161,28
693,097	157,77
693,416	157,1
693,735	154,98
694,053	152,33
694,372	150,05
694,691	150,39
695,01	150,31
695,328	149,79
695,647	150,06
695,966	149,04
696,284	146,69
696,602	146,15
696,921	144,11
697,239	140,19
697,557	139,54
697,876	135,33
698,194	132,13
698,512	129,12
698,83	127,94
699,148	126,62
699,466	125,56
699,784	123,68
700,102	121,75
700,42	119,02
700,737	119,22
701,055	116,88
701,373	118,56
701,69	119,19
702,008	115,8
702,325	113,17
702,643	111,77
702,96	108,12
703,277	105,39
703,595	103,54
703,912	104,53
704,229	101,02
704,546	100,62
704,863	98,95
705,18	96,89
705,497	96,54
705,814	95,49
706,131	92,85
706,448	91,16
706,764	90,48
707,081	90,41
707,398	87,93
707,714	88,25
708,031	85,75
708,347	82,47
708,664	80,96
708,98	79,05
709,296	77,26
709,613	75,3
709,929	75,56
710,245	74,09
710,561	71,53
710,877	69,65
711,193	69,25
711,509	67,87
711,825	67,32
712,141	66,08
712,457	64,38
712,772	64,86
713,088	65,22
713,403	63,79
713,719	62,39
714,035	63,15
714,35	61,63
714,665	61,79
714,981	61,08
715,296	60,5
715,611	61,45
715,926	61,92
716,242	59,68
716,557	60,88
716,872	62,08
717,187	62,15
717,502	57,05
717,816	56,65
718,131	54,25
718,446	54,55
718,761	53,62
719,075	50,48
719,39	50,18
719,704	49,18
720,019	46,28
720,333	45,72
720,648	45,42
720,962	46,6
721,276	43,75
721,59	41,36
721,905	40,52
722,219	40,99
722,533	39,48
722,847	38,54
723,161	37,2
723,475	35,12
723,788	31,33
724,102	28,12
724,416	30,45
724,73	32,18
725,043	33,48
725,357	30,94
725,67	28,71
725,984	30,79
726,297	32,2
726,61	32,62
726,924	33,29
727,237	33,93
727,55	33,85
727,863	30,12
728,176	28,44
728,489	26,38
728,802	28,42
729,115	28,54
729,428	25
729,741	20,66
730,054	18,93
730,366	17,98
730,679	19,13
730,992	19,68
731,304	20,92
731,617	19,64
731,929	19,63
732,241	18,17
732,554	19,93
732,866	20
733,178	19,93
733,49	21,01
733,802	21,94
734,114	18,66
734,426	19,2
734,738	18,8
735,05	20,59
735,362	19,44
735,674	18,81
735,985	18,03
736,297	20,68
736,609	22,71
736,92	24,03
737,232	24,75
737,543	25,73
737,854	24,39
738,166	22,65
738,477	22,08
738,788	21,73
739,099	22
739,411	17,66
739,722	14,16
740,033	12,51
740,344	8,33
740,654	4,95
740,965	4,48
741,276	5,11
741,587	4,44
741,897	4,77
742,208	3,08
742,519	-3,53
742,829	-0,56
743,14	1,56
743,45	-0,38
743,76	-0,67
744,071	-0,38
744,381	-1,33
744,691	-1,41
745,001	1,31
745,311	-0,42
745,621	2,29
745,931	7,02
746,241	7,43
746,551	6,22
746,861	7,25
747,17	7,73
747,48	7,12
747,79	8,99
748,099	7,73
748,409	4,46
748,718	6,17
749,027	5,15
749,337	7,01
749,646	5,32
749,955	6,28
750,265	6,59
750,574	8,35
750,883	10,19
751,192	9,97
751,501	8,69
751,81	10,53
752,118	8,45
752,427	8,22
752,736	8,78
753,045	8,78
753,353	7,07
753,662	7,99
753,97	6,63
754,279	4,59
754,587	3,17
754,896	4,12
755,204	3,91
755,512	4,16
755,82	5,9
756,128	4,13
756,436	4,85
756,744	5,51
757,052	6,72
757,36	8,36
757,668	10
757,976	11,56
758,284	12,56
758,591	12,79
758,899	13,58
759,207	12,07
759,514	12,5
759,821	9,92
760,129	8,09
760,436	6,76
760,744	6,55
761,051	5,1
761,358	4,1
761,665	4,31
761,972	5,06
762,279	4,58
762,586	6,23
762,893	4,49
763,2	5,27
763,507	6,61
763,813	7,19
764,12	5,28
764,427	6,18
764,733	4,44
765,04	5,48
765,346	4,32
765,653	3,66
765,959	0,61
766,265	1,2
766,571	2,95
766,878	3,13
767,184	2,35
767,49	4,46
767,796	5,1
768,102	7,9
768,408	6,18
768,713	5,94
769,019	7,04
769,325	7,82
769,631	8,59
769,936	7,39
770,242	8,02
770,547	8,34
770,853	8,83
771,158	7,77
771,463	6,87
771,769	7,05
772,074	6,72
772,379	7,45
772,684	6,3
772,989	5,1
773,294	5,03
773,599	2,96
773,904	1,22
774,209	1,65
774,514	1,29
774,818	0,33
775,123	0,3
775,428	-0,58
775,732	-3,01
776,037	-2,45
776,341	0,26
776,645	1,51
776,95	2,33
777,254	1,26
777,558	-0,56
777,862	-1,1
778,166	-2,52
778,47	-3,16
778,774	-0,64
779,078	1,2
779,382	0,83
779,686	1,15
779,99	1,79
780,293	3,38
780,597	5,25
780,901	4,05
781,204	4,08
781,508	6,6
781,811	7,88
782,114	8,04
782,418	5,8
782,721	7,5
783,024	6,66
783,327	4,53
783,63	4,06
783,933	4,71
784,236	4,78
784,539	5,45
784,842	2,81
785,145	4,1
785,447	2,09
785,75	2,23
786,053	3,07
786,355	1,36
786,658	2,1
786,96	2,34
787,263	-0,12
787,565	0,79
787,867	1,93
788,169	3,83
788,472	2,05
788,774	1,57
789,076	1,49
789,378	1,42
789,68	3,64
789,982	2,03
790,283	-0,21
790,585	1,61
790,887	4,16
791,188	3,7
791,49	1,09
791,792	-2,16
792,093	-1,17
792,394	-0,55
792,696	-0,32
792,997	-3,78
793,298	-3,72
793,6	-0,72
793,901	-0,74
794,202	-4,07
794,503	-4,28
794,804	-1,73
795,105	2,39
795,405	0,75
795,706	0,56
796,007	-0,24
796,308	1,86
796,608	2,41
796,909	-1,27
797,209	-0,98
797,51	-1,57
797,81	-1,8
798,11	-2,96
798,411	-2,49
798,711	-0,07
799,011	0,07
799,311	1,61
799,611	1,63
799,911	0,84
800,211	2,33
800,511	2,44
800,811	2,09
801,111	2,07
801,41	0,58
801,71	-3,45
802,009	-5,95
802,309	-5,79
802,608	-9,51
802,908	-10
803,207	-8,19
803,507	-6,95
803,806	-9,23
804,105	-7,16
804,404	-6,72
804,703	-4,96
805,002	-2,95
805,301	-2,63
805,6	-2,06
805,899	-1,75
806,198	-1,53
806,496	-0,3
806,795	-0,09
807,094	2,12
807,392	1,54
807,691	3,31
807,989	4,07
808,287	4,4
808,586	7,7
808,884	6,3
809,182	8,03
809,48	8,14
809,778	6,4
810,076	6,54
810,374	6,8
810,672	6,11
810,97	4,32
811,268	4,32
811,566	3,39
811,863	2,1
812,161	0,44
812,458	-0,7
812,756	-0,46
813,053	-1,56
813,351	-2,76
813,648	-3,24
813,945	-2,58
814,242	-3,1
814,54	-3,95
814,837	-3,77
815,134	-2,95
815,431	1,4
815,728	0,26
816,025	1,6
816,321	-1,02
816,618	-2,29
816,915	-4,67
817,211	-4,82
817,508	-5,49
817,804	-4,62
818,101	-4,17
818,397	-5,97
818,694	-9,61
818,99	-9,68
819,286	-11,4
819,582	-7,77
819,878	-7,97
820,174	-4,78
820,47	-3,82
820,766	-3,4
821,062	-3,56
821,358	-3,81
821,654	-5,7
821,949	-2,78
822,245	-2,42
822,541	-1,67
822,836	-0,49
823,132	1,31
823,427	-1,82
823,722	-3,46
824,018	-2,86
824,313	-3,45
824,608	-3,86
824,903	-1,79
825,198	-4,45
825,493	-4,37
825,788	-4,91
826,083	-5,08
826,378	-5,52
826,672	-4,47
826,967	-4,64
827,262	-5,31
827,556	-5,13
827,851	-4,72
828,145	-4,41
828,44	-4,7
828,734	-4,84
829,028	-3,81
829,323	-4,2
829,617	-4,4
829,911	-1,33
830,205	-1,62
830,499	0,65
830,793	-0,67
831,087	-0,81
831,381	-0,46
831,674	3,06
831,968	5,35
832,262	3,42
832,555	1,43
832,849	1,86
833,142	0,81
833,436	2,8
833,729	1,35
834,022	3,06
834,315	2,89
834,609	1,17
834,902	-0,2
835,195	-1,63
835,488	-3,18
835,781	-3,6
836,074	-3,92
836,366	-7,49
836,659	-9,94
836,952	-11,77
837,244	-12,76
837,537	-12,61
837,829	-10,57
838,122	-9,19
838,414	-8,66
838,707	-7,18
838,999	-5,96
839,291	-5,97
839,583	-3,11
839,875	-1,33
840,167	0,42
840,459	-1,38
840,751	-2,24
841,043	-2,97
841,335	-4,79
841,627	-4,58
841,918	-4,2
842,21	-2,7
842,502	-1,94
842,793	-2,25
843,085	-3,13
843,376	-1,71
843,667	2,06
843,959	2,66
844,25	3,16
844,541	5,09
844,832	2,99
845,123	3,07
845,414	2,85
845,705	2
845,996	1,02
846,287	-0,49
846,577	-3,6
846,868	-4,92
847,159	-5,2
847,449	-5,72
847,74	-7,44
848,03	-6,32
848,32	-6,94
848,611	-7,48
848,901	-8,3
849,191	-7,52
849,481	-4,88
849,771	-2,38
850,061	-2,45
850,351	-1,77
850,641	-1,94
850,931	-1,18
851,221	-0,61
851,511	0,28
851,8	0,13
852,09	-0,25
852,379	-0,03
852,669	-0,87
852,958	-2,49
853,248	-2,26
853,537	-1,7
853,826	-1,95
854,115	-1,84
854,404	-2,57
854,693	-2,52
854,982	-4,16
855,271	-3,55
855,56	-5,3
855,849	-4,25
856,138	-2,26
856,427	-4,07
856,715	-4,53
857,004	-2,64
857,292	-3,05
857,581	-3,53
857,869	-4,63
858,157	-1,85
858,446	-1,2
858,734	0,52
859,022	-0,13
859,31	0,26
859,598	2,26
859,886	1,65
860,174	-0,82
860,462	-0,1
860,75	1,88
861,037	2,16
861,325	-0,43
861,613	-0,93
861,9	-1,45
862,188	-1,97
862,475	-2,96
862,763	-1,43
863,05	-0,87
863,337	0,92
863,624	-0,73
863,911	-0,73
864,199	-0,18
864,486	-0,32
864,772	0,84
865,059	2,47
865,346	4,05
865,633	4,81
865,92	0,5
866,206	1,33
866,493	1,27
866,779	1,45
867,066	1,16
867,352	0,5
867,639	2,79
867,925	3,03
868,211	0,51
868,497	-2,39
868,783	-4,42
869,069	-2,07
869,355	-3,81
869,641	-4,68
869,927	-5
870,213	-2,36
870,499	-2,45
870,784	-4,61
871,07	-3,52
871,356	-1,97
871,641	0,43
871,926	2,42
872,212	0,44
872,497	-1,05
872,782	0,77
873,068	2,2
873,353	-1,05
873,638	-1,09
873,923	0,98
874,208	-0,65
874,493	-0,62
874,777	-1,45
875,062	-3,63
875,347	-3,41
875,632	0,12
875,916	-0,99
876,201	-4,41
876,485	-3,44
876,77	-2,46
877,054	-1,88
877,338	-3,13
877,622	-6,49
877,906	-4,57
878,191	-2,41
878,475	1,24
878,759	-0,1
879,042	-0,86
879,326	3,29
879,61	2,98
879,894	3,09
