Data from Subt4__38__38.txt Node

Date: Fri Jun 07 14:39:36 CEST 2024
User: Naturwissenschaft
Spectrometer: FLMS00572
Trigger mode: 0
Integration Time (sec): 5,000000E-2
Scans to average: 20
Electric dark correction enabled: true
Nonlinearity correction enabled: false
Boxcar width: 5
XAxis mode: Wavelengths
Number of Pixels in Spectrum: 2048
>>>>>Begin Spectral Data<<<<<
190,164	7,26
190,544	7,34
190,925	5,73
191,306	4,73
191,687	4,84
192,067	3,59
192,448	2,74
192,829	1,53
193,209	-0,31
193,59	-1,95
193,97	-0,45
194,351	-2,5
194,731	-2,74
195,112	-2,69
195,492	-2,72
195,872	-2,09
196,253	-0,72
196,633	-0,12
197,013	1,72
197,393	2,36
197,773	4,57
198,154	3,94
198,534	4,31
198,914	4,09
199,294	5,03
199,674	5,97
200,054	6,14
200,434	7,13
200,814	7,67
201,194	5,89
201,573	5,07
201,953	3,05
202,333	1,88
202,713	2,62
203,092	0,17
203,472	0,47
203,852	0,28
204,231	-0,15
204,611	-2,08
204,99	-2,94
205,37	-3,08
205,749	-0,15
206,129	2,68
206,508	4,1
206,887	4,22
207,267	6,55
207,646	7,98
208,025	8,94
208,405	9,13
208,784	10,35
209,163	11,05
209,542	12,41
209,921	9,85
210,3	10,05
210,679	10,91
211,058	11,16
211,437	14,52
211,816	15,37
212,195	13,96
212,574	14,48
212,952	13,27
213,331	12,66
213,71	11,69
214,089	12,12
214,467	12,34
214,846	11,97
215,225	10,83
215,603	9,12
215,982	5,6
216,36	5,95
216,739	6,04
217,117	6,18
217,495	5,59
217,874	4,35
218,252	4,78
218,63	3,03
219,009	3,22
219,387	4,31
219,765	4,14
220,143	3,38
220,521	3,72
220,899	2,09
221,277	3,84
221,655	4,34
222,033	3,91
222,411	5,56
222,789	5,63
223,167	7,57
223,545	7,99
223,923	6,72
224,301	7,64
224,678	7,54
225,056	9,07
225,434	7,79
225,811	7,4
226,189	8,19
226,566	6,43
226,944	9,84
227,321	5,94
227,699	3,67
228,076	4,88
228,454	6,71
228,831	6,29
229,208	5,22
229,586	3,59
229,963	4,1
230,34	6,67
230,717	8,02
231,094	3,69
231,471	3,9
231,848	5,39
232,225	3,84
232,602	3,3
232,979	3,32
233,356	4,22
233,733	7,21
234,11	7,55
234,487	6,15
234,864	5,2
235,24	6,56
235,617	7,19
235,994	6,02
236,37	7,86
236,747	8,4
237,124	8,78
237,5	6,74
237,877	5,87
238,253	6,49
238,63	8,5
239,006	10,66
239,382	13,11
239,759	13,93
240,135	12,42
240,511	12,53
240,887	10,76
241,264	10,94
241,64	11,87
242,016	13,92
242,392	11,67
242,768	10,8
243,144	10,32
243,52	7,74
243,896	8,84
244,272	11,93
244,648	10,76
245,023	11,58
245,399	12,35
245,775	12,2
246,151	9,14
246,526	11,15
246,902	9,02
247,278	3,9
247,653	3,02
248,029	2,05
248,404	1,75
248,78	1,79
249,155	0,62
249,53	0,28
249,906	2,2
250,281	3,75
250,656	3,79
251,032	5,94
251,407	8,91
251,782	10,08
252,157	8,19
252,532	8,89
252,907	6,86
253,282	6,86
253,657	6,95
254,032	5,47
254,407	4,29
254,782	3,87
255,157	4,28
255,532	6,25
255,907	8,94
256,281	10,41
256,656	9,16
257,031	12,03
257,405	12,63
257,78	12,49
258,155	11,37
258,529	13,91
258,904	13,34
259,278	13,84
259,652	12,88
260,027	11,18
260,401	11,95
260,775	12,24
261,15	11,87
261,524	13,11
261,898	11,16
262,272	12,29
262,646	9,8
263,021	10,22
263,395	12
263,769	10,65
264,143	9,55
264,517	7,32
264,89	6,37
265,264	3,64
265,638	2,9
266,012	5,75
266,386	4,34
266,76	0,86
267,133	1,66
267,507	-2,9
267,88	-3,19
268,254	-3,43
268,628	-3,46
269,001	-2,92
269,375	-0,05
269,748	1,35
270,121	0,97
270,495	0,92
270,868	5,36
271,241	4,07
271,615	4,89
271,988	5,85
272,361	4,82
272,734	5,05
273,107	6,53
273,48	4,83
273,853	2,12
274,226	0,33
274,599	0,59
274,972	1,57
275,345	3,56
275,718	5,25
276,091	5,65
276,464	6,71
276,836	7,11
277,209	7,62
277,582	9,15
277,954	12,2
278,327	12,64
278,7	13,76
279,072	11,74
279,445	11,04
279,817	9,42
280,189	7,68
280,562	10,21
280,934	11,58
281,306	10,71
281,679	11,02
282,051	10,84
282,423	9,95
282,795	10,89
283,167	14,43
283,539	14,94
283,911	15,35
284,283	15,02
284,655	14,47
285,027	13,64
285,399	12,26
285,771	11,63
286,143	9,07
286,515	11,21
286,886	9,88
287,258	6,67
287,63	6,47
288,001	5,84
288,373	7,56
288,745	6,21
289,116	5,82
289,488	5,53
289,859	5,01
290,23	4,51
290,602	3,67
290,973	1,88
291,344	3,67
291,716	1,26
292,087	2,11
292,458	3,19
292,829	2,63
293,2	4,15
293,571	4,3
293,942	5,35
294,313	6,48
294,684	7,38
295,055	8,92
295,426	8,53
295,797	12,24
296,168	13,28
296,539	12,67
296,909	14,25
297,28	12,29
297,651	13,76
298,021	13,21
298,392	16,42
298,763	15,36
299,133	16,3
299,503	13,94
299,874	10,59
300,244	8,13
300,615	6,27
300,985	4,41
301,355	6,34
301,726	7,89
302,096	7,72
302,466	7,29
302,836	7,79
303,206	8,36
303,576	9,26
303,946	10,97
304,316	11,5
304,686	12,85
305,056	13,48
305,426	11,14
305,796	9,21
306,166	8,11
306,535	4,53
306,905	4,11
307,275	3,94
307,644	4,53
308,014	3,82
308,383	3,93
308,753	4,11
309,122	5,09
309,492	6
309,861	6,78
310,231	8,53
310,6	9,17
310,969	9,45
311,339	8,11
311,708	7,09
312,077	6,86
312,446	6,58
312,815	6,43
313,184	4,33
313,553	4,53
313,922	5,29
314,291	4,83
314,66	6,29
315,029	5,78
315,398	6,53
315,767	8,2
316,136	8,47
316,504	11,19
316,873	11,95
317,242	11,28
317,61	10,93
317,979	11,47
318,347	9,37
318,716	7,14
319,084	7,12
319,453	7,34
319,821	7,73
320,189	9,63
320,558	7,79
320,926	6,72
321,294	8,7
321,662	8,73
322,031	8,15
322,399	11,5
322,767	14,62
323,135	15,09
323,503	14,23
323,871	14,11
324,239	12,7
324,607	11,9
324,974	14,38
325,342	15,89
325,71	16,74
326,078	14,51
326,445	14,28
326,813	12,3
327,181	11,67
327,548	12,31
327,916	12,41
328,283	11,52
328,651	12,54
329,018	8,32
329,385	7,83
329,753	7,86
330,12	9,07
330,487	7,43
330,855	8,67
331,222	8,54
331,589	8,32
331,956	7,44
332,323	7,1
332,69	7,99
333,057	10,88
333,424	8,99
333,791	9,65
334,158	7,03
334,525	7,65
334,892	6,85
335,258	5,78
335,625	6,6
335,992	5,69
336,358	5,61
336,725	2,59
337,091	2
337,458	3,12
337,824	1,12
338,191	1,87
338,557	2,07
338,924	1,48
339,29	3,83
339,656	4,22
340,023	2,9
340,389	3,89
340,755	5,93
341,121	5,84
341,487	3,14
341,853	5,18
342,219	7,53
342,585	7,51
342,951	8,27
343,317	7,78
343,683	6,85
344,049	8,74
344,415	9,89
344,78	8,93
345,146	10,87
345,512	12,75
345,877	12,32
346,243	12,06
346,608	11,72
346,974	11,7
347,339	13,56
347,705	14,86
348,07	12,7
348,436	11,77
348,801	13,11
349,166	10,38
349,531	11,4
349,897	12,13
350,262	12,19
350,627	11,53
350,992	12,11
351,357	10,57
351,722	8,25
352,087	10,97
352,452	11,04
352,817	8,37
353,181	9,18
353,546	8,28
353,911	5,52
354,276	3,88
354,64	3,05
355,005	3,02
355,37	1,47
355,734	1,98
356,099	2,79
356,463	1,77
356,828	3,75
357,192	4,02
357,556	3,47
357,921	5,57
358,285	7,12
358,649	9,26
359,013	11,2
359,378	12,29
359,742	13,1
360,106	13,75
360,47	14,89
360,834	14,72
361,198	14,14
361,562	12,9
361,926	11,38
362,289	11,08
362,653	11,16
363,017	8,92
363,381	8,8
363,744	7,99
364,108	7,11
364,472	6,96
364,835	6,95
365,199	7,39
365,562	9,73
365,926	8,3
366,289	7,11
366,652	7,84
367,016	9,23
367,379	9,7
367,742	11,84
368,105	11,17
368,469	11,25
368,832	12,36
369,195	13
369,558	10,76
369,921	13,11
370,284	14,68
370,647	13,9
371,01	11,5
371,372	9,71
371,735	8,61
372,098	7,81
372,461	6,87
372,823	7,18
373,186	7,38
373,549	7,97
373,911	7,42
374,274	6,21
374,636	6,71
374,999	7,1
375,361	8,81
375,723	7,66
376,086	8,62
376,448	9,62
376,81	8,99
377,172	8,36
377,535	10,37
377,897	9,64
378,259	10,21
378,621	10,12
378,983	9,31
379,345	11,01
379,707	10,38
380,068	9,76
380,43	10,28
380,792	8,8
381,154	7,68
381,516	7,98
381,877	9,39
382,239	8,89
382,6	8,67
382,962	10,82
383,323	8,67
383,685	11,07
384,046	10,23
384,408	10,62
384,769	10,89
385,13	13,61
385,492	12,53
385,853	10,51
386,214	11,84
386,575	11,01
386,936	8,31
387,297	7,32
387,658	7,71
388,019	12,32
388,38	12,99
388,741	14,86
389,102	13,59
389,463	13,3
389,823	15,97
390,184	15,14
390,545	16,54
390,906	17
391,266	18,9
391,627	18,33
391,987	15,63
392,348	14,37
392,708	13,52
393,069	14,56
393,429	14,75
393,789	15,32
394,15	15,9
394,51	16,79
394,87	17,06
395,23	17,16
395,59	16,89
395,95	14,46
396,31	14,43
396,67	14,32
397,03	15,3
397,39	15,93
397,75	14,28
398,11	13,53
398,47	9,28
398,829	13,18
399,189	12,41
399,549	13,54
399,908	16,15
400,268	15,14
400,627	14,43
400,987	12,19
401,346	10,96
401,706	15,23
402,065	19,68
402,424	36,04
402,784	72,13
403,143	176,74
403,502	394,76
403,861	669,07
404,221	876,38
404,58	1004,24
404,939	1076,64
405,298	1111,27
405,657	1120,96
406,015	1121,15
406,374	1111,11
406,733	1072,85
407,092	970,11
407,451	752,96
407,809	476,51
408,168	269,24
408,527	143,02
408,885	70,13
409,244	36,81
409,602	24,52
409,961	20,99
410,319	18,81
410,678	18,01
411,036	16,81
411,394	13,39
411,752	14,65
412,111	16,68
412,469	14,89
412,827	16,99
413,185	17,85
413,543	17,05
413,901	16,59
414,259	14,4
414,617	16,73
414,975	17,4
415,333	18,62
415,69	18,39
416,048	17,89
416,406	19,39
416,763	19,08
417,121	18,81
417,479	18,58
417,836	19,19
418,194	20,82
418,551	17,62
418,909	15,69
419,266	16,14
419,623	18,78
419,981	18,18
420,338	18,26
420,695	18,51
421,052	18,42
421,409	18,53
421,766	18,71
422,123	15,71
422,48	18,43
422,837	20,21
423,194	18,82
423,551	16,85
423,908	16,65
424,265	17,8
424,621	16,36
424,978	16,31
425,335	18,5
425,691	18,44
426,048	22,56
426,404	22,14
426,761	22,58
427,117	23,24
427,474	24,21
427,83	22,25
428,186	23,04
428,543	25,6
428,899	27,27
429,255	26,25
429,611	27,44
429,967	27,51
430,323	28,05
430,679	29,3
431,035	30,18
431,391	30,1
431,747	32,89
432,103	32,96
432,459	32,75
432,815	32,49
433,17	34,8
433,526	34,12
433,882	33,51
434,237	34,35
434,593	33,83
434,948	34,24
435,304	34,99
435,659	36,31
436,014	34,7
436,37	36,36
436,725	35,38
437,08	34,32
437,436	36,08
437,791	35,67
438,146	33,68
438,501	33,29
438,856	35,41
439,211	36,58
439,566	35,61
439,921	36,49
440,276	35,03
440,63	35,42
440,985	35,16
441,34	34,35
441,695	36,46
442,049	38,89
442,404	39,01
442,758	37,42
443,113	37,18
443,467	40,41
443,822	39,16
444,176	40
444,531	43,14
444,885	43,17
445,239	44,34
445,593	42,92
445,948	44,02
446,302	45,06
446,656	47,92
447,01	48,33
447,364	46,18
447,718	48,38
448,072	48,32
448,426	48,37
448,779	51,11
449,133	50,41
449,487	51,23
449,841	51,98
450,194	51,69
450,548	51,99
450,902	52,74
451,255	54,88
451,609	57,39
451,962	58,42
452,315	57,23
452,669	55,19
453,022	56,74
453,375	56,7
453,729	54,95
454,082	57,01
454,435	56,3
454,788	55,46
455,141	55,68
455,494	55,27
455,847	53,93
456,2	55,41
456,553	56,3
456,906	54,94
457,258	55,9
457,611	56,38
457,964	56,31
458,316	57,29
458,669	57,84
459,022	57,84
459,374	55,88
459,727	59,58
460,079	57,57
460,432	57,64
460,784	59,1
461,136	59,73
461,488	60,12
461,841	59,34
462,193	59,16
462,545	60,19
462,897	62,96
463,249	67,22
463,601	66,85
463,953	69,96
464,305	72,49
464,657	72,12
465,009	72,41
465,361	72,83
465,712	74,18
466,064	75,72
466,416	76,12
466,767	74,74
467,119	72,83
467,47	71,42
467,822	70,16
468,173	69,63
468,525	72,04
468,876	72,14
469,227	74,39
469,579	76,63
469,93	76,15
470,281	75,17
470,632	75,61
470,983	76,5
471,334	77,4
471,685	78,29
472,036	77,31
472,387	75,4
472,738	74,14
473,089	71,3
473,44	68,03
473,79	67,67
474,141	69,26
474,492	69,58
474,842	69,55
475,193	69,88
475,543	71,5
475,894	74,47
476,244	77,09
476,595	78,21
476,945	80,85
477,295	84,75
477,645	84,59
477,996	87,61
478,346	86,25
478,696	88,82
479,046	90,07
479,396	90,1
479,746	89,58
480,096	88,03
480,446	89,37
480,796	91,34
481,145	92,01
481,495	94,19
481,845	92,92
482,195	94,1
482,544	93,4
482,894	94,52
483,243	96,82
483,593	96,91
483,942	99,2
484,292	100,3
484,641	101,09
484,99	99,2
485,34	100,65
485,689	100,17
486,038	103,04
486,387	104,42
486,736	102,3
487,085	102,35
487,434	105,66
487,783	108,77
488,132	111,71
488,481	112,23
488,83	115,56
489,179	115,5
489,527	119,97
489,876	121,93
490,225	121,86
490,573	124,59
490,922	126,32
491,27	126,21
491,619	127,82
491,967	129,28
492,316	132,47
492,664	136,07
493,012	138,58
493,361	138,51
493,709	138,43
494,057	142,21
494,405	146,65
494,753	150,43
495,101	154,56
495,449	155,6
495,797	160,8
496,145	166,08
496,493	170,36
496,84	176
497,188	181,32
497,536	190,9
497,884	197,96
498,231	207
498,579	216,52
498,926	223,63
499,274	235,12
499,621	243,56
499,969	250,36
500,316	263,79
500,663	277,59
501,01	291,9
501,358	304,99
501,705	321,1
502,052	336,39
502,399	352,17
502,746	371,45
503,093	390,08
503,44	413,79
503,787	438,24
504,134	462,03
504,481	487,58
504,827	518,17
505,174	548,78
505,521	580,54
505,867	614,46
506,214	651,47
506,56	691,06
506,907	735,27
507,253	777,79
507,6	826,98
507,946	873,85
508,292	923,85
508,639	975,7
508,985	1032,89
509,331	1094,74
509,677	1160,1
510,023	1225,16
510,369	1293,69
510,715	1364,68
511,061	1435,58
511,407	1509,29
511,753	1585,64
512,099	1665,62
512,444	1745,8
512,79	1827,48
513,136	1905,61
513,481	1988,43
513,827	2070,97
514,172	2152,91
514,518	2232,51
514,863	2315,84
515,209	2393,24
515,554	2471,95
515,899	2545,46
516,245	2618,22
516,59	2685,82
516,935	2755,19
517,28	2815,34
517,625	2869,62
517,97	2919,69
518,315	2961,72
518,66	3000,39
519,005	3033,9
519,35	3062,33
519,695	3082,84
520,039	3098,8
520,384	3102,54
520,729	3100,26
521,073	3096,71
521,418	3091,6
521,762	3077,72
522,107	3059,72
522,451	3033,46
522,796	3005,94
523,14	2968,85
523,484	2935,85
523,829	2896,24
524,173	2859,9
524,517	2814,16
524,861	2765,14
525,205	2713,74
525,549	2665,28
525,893	2616,92
526,237	2568,34
526,581	2518,92
526,925	2469,24
527,269	2419,81
527,612	2369,87
527,956	2321,08
528,3	2274,05
528,643	2226,94
528,987	2180,82
529,33	2137,29
529,674	2094,68
530,017	2051,17
530,36	2009,91
530,704	1970,5
531,047	1930,68
531,39	1894,87
531,733	1859,26
532,077	1824,96
532,42	1793,74
532,763	1759,91
533,106	1727,54
533,449	1693,9
533,792	1664,26
534,134	1634,53
534,477	1610,18
534,82	1585,57
535,163	1556,84
535,505	1528,93
535,848	1508,14
536,191	1482,33
536,533	1461,88
536,876	1441,57
537,218	1421,66
537,56	1403,6
537,903	1385,66
538,245	1367,17
538,587	1347,86
538,93	1332,77
539,272	1318,43
539,614	1303,07
539,956	1288,25
540,298	1273,68
540,64	1257,23
540,982	1246
541,324	1232,28
541,666	1219,63
542,007	1205,68
542,349	1192,37
542,691	1180,24
543,032	1170,58
543,374	1159,96
543,716	1153,64
544,057	1145,78
544,398	1141,14
544,74	1131,93
545,081	1126,87
545,423	1119,37
545,764	1113,31
546,105	1107,87
546,446	1103,39
546,787	1096,48
547,128	1091,63
547,469	1085,44
547,81	1080,92
548,151	1079,44
548,492	1077
548,833	1074,37
549,174	1075,85
549,515	1078,56
549,855	1080,37
550,196	1082,18
550,537	1086,77
550,877	1087,64
551,218	1091,64
551,558	1095,31
551,899	1093,13
552,239	1099,5
552,579	1102,33
552,92	1105,41
553,26	1108,93
553,6	1114,2
553,94	1118,6
554,28	1121,8
554,62	1127,57
554,96	1132,17
555,3	1141,23
555,64	1147,55
555,98	1152,3
556,32	1160,82
556,66	1167,96
556,999	1176,4
557,339	1186,91
557,679	1198,67
558,018	1210,36
558,358	1225,36
558,697	1239,12
559,037	1251,6
559,376	1270,13
559,715	1289,96
560,055	1309,7
560,394	1329,59
560,733	1353,52
561,072	1376,1
561,411	1398,85
561,75	1425,31
562,089	1454,47
562,428	1485,12
562,767	1521,45
563,106	1559,61
563,445	1594,9
563,784	1637,99
564,122	1681,51
564,461	1726,58
564,8	1777,38
565,138	1835,16
565,477	1895,85
565,815	1959,97
566,154	2031,28
566,492	2104,97
566,83	2182,2
567,169	2265,61
567,507	2353,63
567,845	2449,5
568,183	2549,38
568,521	2657,91
568,859	2766,4
569,197	2882,53
569,535	3004,54
569,873	3130,29
570,211	3264,83
570,549	3405,71
570,887	3555,04
571,224	3704,43
571,562	3867,1
571,9	4037,27
572,237	4206,86
572,575	4386,3
572,912	4575,63
573,25	4765,46
573,587	4961,48
573,924	5167,37
574,262	5372,84
574,599	5583,57
574,936	5802,47
575,273	6018,03
575,61	6237,81
575,947	6464,61
576,284	6690,38
576,621	6907,41
576,958	7127,18
577,295	7347,91
577,632	7560,65
577,969	7780,29
578,305	7992,26
578,642	8195,41
578,979	8392,87
579,315	8578,96
579,652	8753,19
579,988	8922,33
580,325	9083,94
580,661	9227,42
580,997	9357,45
581,334	9474,51
581,67	9574,94
582,006	9658,7
582,342	9734,06
582,678	9784,23
583,014	9821,09
583,35	9844,87
583,686	9853,73
584,022	9842,17
584,358	9822,12
584,694	9788,32
585,029	9732,81
585,365	9668,56
585,701	9587,58
586,036	9491,87
586,372	9394,06
586,707	9286,69
587,043	9164,1
587,378	9028,27
587,714	8888,87
588,049	8736,65
588,384	8583,68
588,719	8428,84
589,054	8258,3
589,39	8095,16
589,725	7926,45
590,06	7755,11
590,395	7578,46
590,729	7409,49
591,064	7242,03
591,399	7074,43
591,734	6910,74
592,069	6743,03
592,403	6576,4
592,738	6420,27
593,073	6262,53
593,407	6107,01
593,742	5959,88
594,076	5814,14
594,41	5669,01
594,745	5529,06
595,079	5390,94
595,413	5257,34
595,747	5128,57
596,081	5004,46
596,416	4876,8
596,75	4756,81
597,084	4641,17
597,418	4526,94
597,751	4413,53
598,085	4306,91
598,419	4204,2
598,753	4107,78
599,086	4018,06
599,42	3923,3
599,754	3836,54
600,087	3754,5
600,421	3674,52
600,754	3597,1
601,088	3521,22
601,421	3456,88
601,754	3387,44
602,088	3316,45
602,421	3247
602,754	3182,83
603,087	3125,93
603,42	3067,69
603,753	3011,33
604,086	2960,72
604,419	2908,23
604,752	2857,44
605,085	2806,13
605,417	2757,86
605,75	2714,85
606,083	2675,22
606,415	2634,2
606,748	2593,9
607,08	2554,79
607,413	2518,49
607,745	2481,64
608,078	2448,71
608,41	2416,85
608,742	2385,48
609,074	2357,75
609,407	2330,08
609,739	2303,11
610,071	2275,26
610,403	2249,16
610,735	2223,88
611,067	2203,48
611,399	2181,8
611,73	2158,68
612,062	2138,49
612,394	2118,03
612,726	2099,11
613,057	2084,47
613,389	2069,08
613,72	2055,45
614,052	2042,73
614,383	2031,49
614,715	2016,55
615,046	1998,96
615,377	1989,64
615,708	1978,13
616,04	1972,69
616,371	1967,06
616,702	1956,4
617,033	1951,22
617,364	1947,08
617,695	1943,35
618,026	1938,91
618,356	1938,75
618,687	1942,95
619,018	1944,02
619,349	1947,15
619,679	1947
620,01	1947,12
620,34	1952,5
620,671	1956,5
621,001	1956,66
621,332	1961,64
621,662	1968,22
621,992	1972,38
622,322	1974,52
622,653	1979,23
622,983	1982,69
623,313	1987,92
623,643	1996,31
623,973	2001,76
624,303	2010,55
624,633	2017,09
624,962	2022,98
625,292	2024,53
625,622	2031,57
625,952	2038,57
626,281	2043,95
626,611	2051,47
626,94	2058,27
627,27	2059,99
627,599	2064,47
627,929	2061,56
628,258	2065,54
628,587	2069,85
628,916	2079,15
629,246	2081,61
629,575	2083,84
629,904	2085,13
630,233	2084,77
630,562	2086,73
630,891	2087,89
631,22	2086,77
631,548	2084,61
631,877	2082,66
632,206	2079
632,535	2071,31
632,863	2068,76
633,192	2067,23
633,52	2061,57
633,849	2058,3
634,177	2047,37
634,506	2040,6
634,834	2032,2
635,162	2028,71
635,49	2020,38
635,819	2008,87
636,147	1998,12
636,475	1983,91
636,803	1969,97
637,131	1957,99
637,459	1939,06
637,787	1924,49
638,114	1908,03
638,442	1888,01
638,77	1866,15
639,098	1847,31
639,425	1828,69
639,753	1808,16
640,08	1787,31
640,408	1763,65
640,735	1741,45
641,062	1720,3
641,39	1699,49
641,717	1674,23
642,044	1651,74
642,371	1628,16
642,699	1604,2
643,026	1577,91
643,353	1554,27
643,68	1527,22
644,006	1501,28
644,333	1473,9
644,66	1447,76
644,987	1419,63
645,314	1394,46
645,64	1366,09
645,967	1339,38
646,293	1312,17
646,62	1284,73
646,946	1258,13
647,273	1234,3
647,599	1208,43
647,925	1183,43
648,252	1157,23
648,578	1132,68
648,904	1107,46
649,23	1085,47
649,556	1063,02
649,882	1039,98
650,208	1020,44
650,534	998,47
650,86	975,68
651,185	955,02
651,511	933,33
651,837	915,82
652,162	897,93
652,488	879,45
652,814	860,38
653,139	841,91
653,464	825,58
653,79	806,89
654,115	789,61
654,44	774,43
654,766	759,83
655,091	744,41
655,416	728,82
655,741	709,82
656,066	694,95
656,391	685,29
656,716	670,81
657,041	656,8
657,366	642,72
657,69	630,58
658,015	618,41
658,34	604,44
658,664	596,01
658,989	585,4
659,313	576,9
659,638	568
659,962	554,69
660,286	542,81
660,611	533,84
660,935	525,8
661,259	514,46
661,583	503,16
661,907	495,41
662,231	484,52
662,555	474,58
662,879	464,56
663,203	455,64
663,527	448,74
663,851	444,62
664,175	435,88
664,498	427,85
664,822	421,75
665,145	415,2
665,469	410,02
665,792	405,46
666,116	399,23
666,439	396,93
666,763	390,7
667,086	384,5
667,409	379,17
667,732	373,92
668,055	371,3
668,378	369,55
668,701	365,61
669,024	360,44
669,347	353,52
669,67	349,38
669,993	342,21
670,316	336,8
670,638	330,8
670,961	326,37
671,283	322,41
671,606	315,18
671,928	307,36
672,251	303,04
672,573	296,8
672,896	295,72
673,218	292,47
673,54	291,44
673,862	288,83
674,184	287,39
674,506	283,14
674,828	279,47
675,15	277,71
675,472	275,93
675,794	273,05
676,116	272,19
676,438	266,69
676,759	264,44
677,081	258,93
677,403	256,85
677,724	253,29
678,046	249,2
678,367	246,66
678,689	244,57
679,01	242,99
679,331	242,29
679,652	240,97
679,974	239,46
680,295	238,24
680,616	237,86
680,937	236,63
681,258	237,17
681,579	238,68
681,9	236,86
682,22	235,6
682,541	234,11
682,862	230,91
683,183	229,69
683,503	227,48
683,824	225,33
684,144	224,3
684,465	222,06
684,785	218,1
685,105	214,34
685,426	213,21
685,746	212,95
686,066	209,45
686,386	209,02
686,706	205,89
687,026	207,79
687,346	207,86
687,666	204,76
687,986	205,02
688,306	205,9
688,626	205,18
688,945	203,83
689,265	200,22
689,585	199,4
689,904	196,48
690,224	195,96
690,543	192,95
690,862	188,57
691,182	185,13
691,501	182,8
691,82	180,88
692,139	178,23
692,459	174,38
692,778	174,7
693,097	172,63
693,416	171,42
693,735	170,74
694,053	167,68
694,372	166,45
694,691	168,53
695,01	167,7
695,328	164,03
695,647	160,81
695,966	160,9
696,284	157,22
696,602	157,32
696,921	156,73
697,239	152,93
697,557	151,91
697,876	148,4
698,194	142,74
698,512	138,99
698,83	136,57
699,148	137,39
699,466	137,81
699,784	137,86
700,102	135,63
700,42	133,76
700,737	133,13
701,055	129,43
701,373	130,46
701,69	130,58
702,008	126,67
702,325	124,43
702,643	123,32
702,96	118,23
703,277	114,92
703,595	113,59
703,912	111,93
704,229	108,28
704,546	108,77
704,863	105,66
705,18	104,19
705,497	105,96
705,814	105,95
706,131	103,69
706,448	104,57
706,764	104,24
707,081	101,55
707,398	100,54
707,714	99,21
708,031	96,69
708,347	95,42
708,664	94,2
708,98	91,28
709,296	90,27
709,613	88,83
709,929	86,68
710,245	84,84
710,561	84,75
710,877	81,52
711,193	79,98
711,509	80,13
711,825	80,19
712,141	78,1
712,457	76,05
712,772	75,36
713,088	74,92
713,403	74,25
713,719	71,92
714,035	69,59
714,35	68,84
714,665	70,34
714,981	67,81
715,296	66,88
715,611	68,99
715,926	69,55
716,242	67,55
716,557	68,67
716,872	69,84
717,187	69,57
717,502	65,71
717,816	62,37
718,131	59,73
718,446	59,96
718,761	57,12
719,075	55,37
719,39	55,99
719,704	54,81
720,019	52
720,333	48,21
720,648	48,19
720,962	49,5
721,276	48,8
721,59	49,39
721,905	46,81
722,219	48,49
722,533	45,52
722,847	41,97
723,161	41,4
723,475	40,52
723,788	40,25
724,102	36,48
724,416	38,09
724,73	41,69
725,043	38,9
725,357	40,08
725,67	38,34
725,984	38,8
726,297	38,37
726,61	38,15
726,924	35,77
727,237	34,52
727,55	34,24
727,863	30,7
728,176	28,88
728,489	31,07
728,802	31,59
729,115	30,93
729,428	29,4
729,741	28,99
730,054	28,16
730,366	28,16
730,679	29,03
730,992	30,51
731,304	31,81
731,617	30,11
731,929	30,04
732,241	27,6
732,554	29,04
732,866	30,68
733,178	30,39
733,49	30,09
733,802	31,24
734,114	30,01
734,426	29,96
734,738	28,37
735,05	28,69
735,362	24,96
735,674	25,05
735,985	23,85
736,297	24,4
736,609	25,88
736,92	26,82
737,232	26,19
737,543	25,63
737,854	26,29
738,166	24,34
738,477	24,16
738,788	24,87
739,099	24,82
739,411	21,52
739,722	19,02
740,033	19,34
740,344	17,59
740,654	15,8
740,965	16,79
741,276	14,07
741,587	15,75
741,897	15,86
742,208	14,81
742,519	7,27
742,829	8,9
743,14	9,18
743,45	6,03
743,76	4,07
744,071	4,56
744,381	3,13
744,691	3,68
745,001	6,76
745,311	5,33
745,621	7,45
745,931	14,88
746,241	17,02
746,551	18,12
746,861	19,36
747,17	20,41
747,48	19,73
747,79	20,86
748,099	21,61
748,409	17,97
748,718	20,41
749,027	18,54
749,337	17,68
749,646	14,48
749,955	13,94
750,265	14,16
750,574	13,79
750,883	15,16
751,192	14,57
751,501	13,49
751,81	17,06
752,118	13,17
752,427	12,81
752,736	13,56
753,045	14,3
753,353	13,22
753,662	13,06
753,97	14,66
754,279	13,56
754,587	12,99
754,896	14,35
755,204	11,29
755,512	12,85
755,82	15,31
756,128	16,01
756,436	16,67
756,744	17,06
757,052	18,39
757,36	17,15
757,668	17,66
757,976	18,65
758,284	18,39
758,591	16,46
758,899	18,01
759,207	16,25
759,514	16,93
759,821	13,93
760,129	13
760,436	12,24
760,744	12,22
761,051	11,06
761,358	11,18
761,665	8,84
761,972	10,89
762,279	9,56
762,586	10,71
762,893	7,5
763,2	9,97
763,507	10,77
763,813	10,42
764,12	9,02
764,427	9,64
764,733	5,91
765,04	7,19
765,346	7,46
765,653	6,39
765,959	4,89
766,265	3,56
766,571	4,25
766,878	3,99
767,184	1,37
767,49	3,73
767,796	3,86
768,102	6,33
768,408	6,17
768,713	6,05
769,019	7,49
769,325	7,09
769,631	8,73
769,936	7,31
770,242	5,73
770,547	8,08
770,853	10,28
771,158	9,98
771,463	10,51
771,769	10,67
772,074	10,16
772,379	9,37
772,684	9,11
772,989	9,17
773,294	8,8
773,599	8,4
773,904	5,8
774,209	3,38
774,514	1,98
774,818	-0,04
775,123	1,06
775,428	-0,37
775,732	-0,13
776,037	0,36
776,341	1,73
776,645	3,13
776,95	4,11
777,254	7,62
777,558	7,53
777,862	9,34
778,166	10,48
778,47	9,24
778,774	12
779,078	12,47
779,382	14,8
779,686	15,47
779,99	15,73
780,293	15,68
780,597	16,63
780,901	16,42
781,204	16,39
781,508	15,45
781,811	15,15
782,114	13,55
782,418	13,9
782,721	12,13
783,024	11,34
783,327	9,16
783,63	12,2
783,933	9
784,236	8,81
784,539	9,24
784,842	7,97
785,145	10,05
785,447	9,6
785,75	6,74
786,053	8,03
786,355	7,79
786,658	9,16
786,96	6,81
787,263	6,43
787,565	3,38
787,867	3,04
788,169	5,28
788,472	2,85
788,774	4,13
789,076	7,29
789,378	6,26
789,68	7,27
789,982	7,75
790,283	7,89
790,585	8,56
790,887	12,33
791,188	13,23
791,49	12,03
791,792	11,73
792,093	9,74
792,394	7,47
792,696	7,66
792,997	4,54
793,298	3,75
793,6	4,89
793,901	5,64
794,202	3,83
794,503	1,76
794,804	3,19
795,105	5,31
795,405	6,91
795,706	8,11
796,007	8,04
796,308	9,79
796,608	9,06
796,909	5,25
797,209	4,73
797,51	5,52
797,81	4,78
798,11	5,76
798,411	4,8
798,711	4,29
799,011	3,82
799,311	3,51
799,611	4,73
799,911	5,25
800,211	6,82
800,511	8,34
800,811	10,37
801,111	10,5
801,41	6,83
801,71	4,32
802,009	3,45
802,309	1,85
802,608	0,51
802,908	-0,3
803,207	-0,2
803,507	1,09
803,806	-2,38
804,105	-4,28
804,404	-2,1
804,703	0,46
805,002	3,25
805,301	4,51
805,6	6,37
805,899	6,49
806,198	7,28
806,496	8,04
806,795	8,69
807,094	12,61
807,392	12,66
807,691	13,07
807,989	13,52
808,287	14,65
808,586	14,19
808,884	15,15
809,182	16,49
809,48	13,28
809,778	12,62
810,076	14,01
810,374	10,52
810,672	10,53
810,97	8,99
811,268	7,97
811,566	6,33
811,863	7,22
812,161	4,63
812,458	4,32
812,756	5,85
813,053	4,31
813,351	1,59
813,648	4,46
813,945	2,54
814,242	2,79
814,54	3,29
814,837	2,16
815,134	3,11
815,431	7,08
815,728	4,88
816,025	6,14
816,321	5,91
816,618	5,37
816,915	1,91
817,211	5,57
817,508	4,33
817,804	3,47
818,101	5,12
818,397	4,1
818,694	0,2
818,99	1,47
819,286	1,67
819,582	2,79
819,878	2,9
820,174	6,22
820,47	5,25
820,766	7,08
821,062	7,83
821,358	7
821,654	4,88
821,949	6,78
822,245	6,71
822,541	5,76
822,836	4,74
823,132	7,28
823,427	2,7
823,722	-0,17
824,018	-0,91
824,313	-0,66
824,608	-0,31
824,903	2,21
825,198	-0,65
825,493	-0,17
825,788	-1,37
826,083	0,7
826,378	-1,98
826,672	0,24
826,967	1,93
827,262	-0,7
827,556	-1,75
827,851	-3,17
828,145	-3,99
828,44	-3,26
828,734	-3,78
829,028	-2,68
829,323	-4,47
829,617	-3,72
829,911	0,24
830,205	-0,35
830,499	2,49
830,793	1,96
831,087	1,79
831,381	3,47
831,674	6,43
831,968	8,35
832,262	7,82
832,555	8,98
832,849	10,26
833,142	6,99
833,436	8,68
833,729	8,58
834,022	9,92
834,315	9,95
834,609	6,68
834,902	6,18
835,195	4,97
835,488	4,29
835,781	3,37
836,074	2,61
836,366	0,86
836,659	-1,35
836,952	-1,76
837,244	-0,16
837,537	2,09
837,829	3,23
838,122	1,31
838,414	1,49
838,707	4,45
838,999	5,87
839,291	4,68
839,583	7,27
839,875	9,87
840,167	10,17
840,459	5,89
840,751	3,96
841,043	5,36
841,335	7,31
841,627	5,99
841,918	4,79
842,21	5,28
842,502	5,14
842,793	3,43
843,085	2,69
843,376	4,05
843,667	7,94
843,959	9,31
844,25	7,08
844,541	6,36
844,832	6
845,123	5,54
845,414	4,69
845,705	4,35
845,996	5,87
846,287	4,63
846,577	2,98
846,868	1,93
847,159	0,77
847,449	3,57
847,74	3,4
848,03	4,89
848,32	3,58
848,611	3,72
848,901	5,87
849,191	5,2
849,481	7,64
849,771	7,96
850,061	8,46
850,351	9,28
850,641	8,16
850,931	8,66
851,221	6,83
851,511	7,35
851,8	7,93
852,09	5,15
852,379	6,99
852,669	4,21
852,958	5,51
853,248	3,81
853,537	3,66
853,826	3,69
854,115	3,52
854,404	4,56
854,693	4,82
854,982	2,26
855,271	2,43
855,56	-0,77
855,849	0,14
856,138	-1,32
856,427	-3,44
856,715	-3,81
857,004	-3,78
857,292	-3,01
857,581	-2,87
857,869	-4,12
858,157	-2,08
858,446	0,34
858,734	2,81
859,022	2,7
859,31	3,38
859,598	4,83
859,886	3,57
860,174	3,43
860,462	3,79
860,75	3,64
861,037	4,74
861,325	5,21
861,613	5,08
861,9	5,64
862,188	4,61
862,475	5,53
862,763	7,47
863,05	8,03
863,337	8,02
863,624	6,14
863,911	7,22
864,199	8,15
864,486	7,76
864,772	8,26
865,059	8,58
865,346	10,53
865,633	9,81
865,92	8,39
866,206	11,88
866,493	13,3
866,779	13,19
867,066	11,8
867,352	9,36
867,639	10,29
867,925	9,3
868,211	7,98
868,497	6,36
868,783	4,73
869,069	4,45
869,355	0,63
869,641	-1,91
869,927	-1,03
870,213	1,15
870,499	0,77
870,784	-2,33
871,07	-2,7
871,356	-3,46
871,641	-3,08
871,926	-3,52
872,212	-3,41
872,497	-1,22
872,782	2,18
873,068	2,96
873,353	3,25
873,638	5,46
873,923	9,23
874,208	8,83
874,493	9,01
874,777	10,12
875,062	10,96
875,347	11,36
875,632	9,3
875,916	7,36
876,201	6,23
876,485	4,33
876,77	3,78
877,054	2,29
877,338	4,13
877,622	4,48
877,906	4,56
878,191	5,63
878,475	7,02
878,759	8,59
879,042	8,23
879,326	9,06
879,61	10,26
879,894	11,95
