Data from Subt4__30__30.txt Node

Date: Fri Jun 07 14:39:28 CEST 2024
User: Naturwissenschaft
Spectrometer: FLMS00572
Trigger mode: 0
Integration Time (sec): 5,000000E-2
Scans to average: 20
Electric dark correction enabled: true
Nonlinearity correction enabled: false
Boxcar width: 5
XAxis mode: Wavelengths
Number of Pixels in Spectrum: 2048
>>>>>Begin Spectral Data<<<<<
190,164	-10,56
190,544	-8,56
190,925	-6,96
191,306	-5,81
191,687	-4,47
192,067	-5,35
192,448	-4,13
192,829	-3,69
193,209	-1,73
193,59	-1,48
193,97	-2,64
194,351	-0,46
194,731	0,02
195,112	-0,33
195,492	-1,42
195,872	-0,63
196,253	1,74
196,633	1,99
197,013	5,58
197,393	4,08
197,773	4,86
198,154	5,63
198,534	4,56
198,914	4,19
199,294	4,23
199,674	4,77
200,054	3,93
200,434	2,87
200,814	5,08
201,194	1,9
201,573	2,37
201,953	1,79
202,333	0,72
202,713	-0,18
203,092	-0,44
203,472	-1,52
203,852	1,25
204,231	0,81
204,611	1,96
204,99	0,04
205,37	-0,38
205,749	0,89
206,129	2,3
206,508	5,36
206,887	7,66
207,267	6,48
207,646	9,57
208,025	7,01
208,405	7,54
208,784	6,81
209,163	8,1
209,542	10,51
209,921	8,66
210,3	8,79
210,679	7,08
211,058	6,55
211,437	9,16
211,816	9,84
212,195	9,25
212,574	9,22
212,952	9,62
213,331	8,41
213,71	7,97
214,089	8,6
214,467	7,56
214,846	7,77
215,225	7,15
215,603	6,88
215,982	3,91
216,36	4,3
216,739	4,93
217,117	5,32
217,495	5,18
217,874	4,03
218,252	3,5
218,63	2,74
219,009	3,79
219,387	3,3
219,765	3,38
220,143	3,76
220,521	6,13
220,899	5,2
221,277	3,73
221,655	3,32
222,033	5,33
222,411	7,31
222,789	6,81
223,167	6,74
223,545	7,59
223,923	8,81
224,301	9,56
224,678	8,78
225,056	6,5
225,434	6,91
225,811	8,04
226,189	5,58
226,566	3,41
226,944	6,08
227,321	4,2
227,699	4,26
228,076	2,06
228,454	1,32
228,831	0,62
229,208	1,3
229,586	-0,24
229,963	-0,84
230,34	1,7
230,717	4,13
231,094	1,52
231,471	2,02
231,848	0,7
232,225	-0,98
232,602	-0,41
232,979	-0,86
233,356	-0,14
233,733	1,57
234,11	2,66
234,487	1,46
234,864	1,69
235,24	3,02
235,617	2,29
235,994	1,63
236,37	4,16
236,747	3,77
237,124	3,65
237,5	3
237,877	0,59
238,253	-0,27
238,63	0,48
239,006	1,33
239,382	2,04
239,759	5,03
240,135	4,61
240,511	4,2
240,887	3,46
241,264	4,1
241,64	5,48
242,016	7,99
242,392	8,49
242,768	7,56
243,144	6,08
243,52	4,97
243,896	2,42
244,272	5,7
244,648	4,09
245,023	5,06
245,399	5,05
245,775	4,97
246,151	4,66
246,526	3,99
246,902	2,76
247,278	0,35
247,653	0,72
248,029	1,33
248,404	-0,03
248,78	0,95
249,155	1,02
249,53	-0,06
249,906	0,14
250,281	1,34
250,656	3,91
251,032	4,96
251,407	6,83
251,782	7,94
252,157	8,52
252,532	8,47
252,907	9,76
253,282	8,29
253,657	9,39
254,032	10,11
254,407	9,18
254,782	7,55
255,157	7,79
255,532	7,65
255,907	7,77
256,281	8,02
256,656	9,12
257,031	8,56
257,405	9,03
257,78	8,73
258,155	8,35
258,529	7,78
258,904	7,29
259,278	6,66
259,652	7,27
260,027	7,06
260,401	6,72
260,775	6,32
261,15	6,97
261,524	8,84
261,898	6,27
262,272	5,72
262,646	5,18
263,021	5,6
263,395	7,93
263,769	6,42
264,143	8,66
264,517	8,35
264,89	7,83
265,264	4,01
265,638	3,69
266,012	7,5
266,386	7,43
266,76	6,26
267,133	4,21
267,507	1,01
267,88	0,63
268,254	-3,32
268,628	-4,56
269,001	-4,45
269,375	-0,79
269,748	-0,28
270,121	-1,01
270,495	-0,14
270,868	2,92
271,241	3,35
271,615	4,53
271,988	5,54
272,361	5,6
272,734	5,52
273,107	5,92
273,48	4,63
273,853	3,89
274,226	4,55
274,599	4,68
274,972	2,89
275,345	5,52
275,718	5,35
276,091	5,59
276,464	6,74
276,836	7,87
277,209	6,35
277,582	6,46
277,954	5,9
278,327	4,15
278,7	3,39
279,072	5,59
279,445	3,88
279,817	3,46
280,189	3,65
280,562	3,32
280,934	3,18
281,306	5,3
281,679	6,4
282,051	6,69
282,423	7,04
282,795	6,57
283,167	6,86
283,539	6,07
283,911	5,04
284,283	4,8
284,655	6,51
285,027	7,25
285,399	5,44
285,771	6,15
286,143	6,83
286,515	5
286,886	5,08
287,258	3,25
287,63	5,27
288,001	6,1
288,373	8,92
288,745	7,43
289,116	7,32
289,488	5,72
289,859	3,36
290,23	0,71
290,602	3,05
290,973	2,29
291,344	4,58
291,716	3,12
292,087	3,06
292,458	1,37
292,829	-0,61
293,2	-0,49
293,571	0,78
293,942	1,08
294,313	3,16
294,684	4,15
295,055	4,05
295,426	2,27
295,797	2,76
296,168	3,45
296,539	2,85
296,909	7,38
297,28	7,12
297,651	8,06
298,021	7,94
298,392	9,79
298,763	7,84
299,133	9,02
299,503	7,5
299,874	5,68
300,244	4,71
300,615	4,96
300,985	2,41
301,355	2,61
301,726	2,83
302,096	2,16
302,466	-0,16
302,836	-1,08
303,206	-0,5
303,576	1,08
303,946	2,76
304,316	3,66
304,686	2,71
305,056	2,74
305,426	3,24
305,796	4,77
306,166	4,25
306,535	4,73
306,905	7,4
307,275	5,92
307,644	3,98
308,014	4,71
308,383	3,88
308,753	2,76
309,122	1,75
309,492	1,22
309,861	0,52
310,231	1,58
310,6	1,34
310,969	-0,06
311,339	1,38
311,708	1,46
312,077	0,62
312,446	1,8
312,815	2,19
313,184	0,73
313,553	-0,13
313,922	0,59
314,291	2,11
314,66	3,44
315,029	2,57
315,398	2,33
315,767	5,26
316,136	3,47
316,504	4,25
316,873	6,32
317,242	8,28
317,61	7,28
317,979	5,86
318,347	3,11
318,716	0,97
319,084	3,15
319,453	3,09
319,821	1,36
320,189	5,04
320,558	4,53
320,926	1,9
321,294	1,31
321,662	2
322,031	3,26
322,399	4,89
322,767	6,57
323,135	5,51
323,503	5,74
323,871	6,22
324,239	3,73
324,607	3,67
324,974	7,29
325,342	9,47
325,71	8,92
326,078	8,67
326,445	10,19
326,813	10,95
327,181	9,58
327,548	7,36
327,916	8,26
328,283	8,27
328,651	8,59
329,018	3,72
329,385	1,42
329,753	3,37
330,12	-0,54
330,487	-1,17
330,855	-3,06
331,222	-3,04
331,589	-2,76
331,956	-4,43
332,323	-5,21
332,69	-4,25
333,057	1,21
333,424	0,6
333,791	2,34
334,158	3,48
334,525	2,62
334,892	3,23
335,258	3,37
335,625	5,3
335,992	4,93
336,358	5,8
336,725	3,35
337,091	-0,03
337,458	1,94
337,824	-1,68
338,191	-1,61
338,557	-2,74
338,924	-3,87
339,29	-2,96
339,656	-3,61
340,023	-2,73
340,389	-2,63
340,755	-2,12
341,121	-0,82
341,487	-1,66
341,853	-0,17
342,219	1,02
342,585	1,76
342,951	2,34
343,317	3,54
343,683	4,03
344,049	2,54
344,415	3,73
344,78	2,38
345,146	4,54
345,512	3,98
345,877	3,91
346,243	3,44
346,608	5,48
346,974	6,45
347,339	6,57
347,705	5,42
348,07	5,47
348,436	7,51
348,801	10,12
349,166	6,35
349,531	9,21
349,897	10,1
350,262	11,69
350,627	10,27
350,992	10,33
351,357	8,02
351,722	8,46
352,087	9,98
352,452	6,14
352,817	4,55
353,181	5,95
353,546	3,38
353,911	0,94
354,276	0,62
354,64	0,09
355,005	-0,81
355,37	-1,76
355,734	-2,48
356,099	-2,06
356,463	0,28
356,828	0,2
357,192	-0,9
357,556	0,09
357,921	0,56
358,285	0,14
358,649	1,29
359,013	3,57
359,378	5,49
359,742	6,76
360,106	6,67
360,47	5,04
360,834	7,11
361,198	8,03
361,562	8,04
361,926	9,37
362,289	10,59
362,653	10,99
363,017	8,82
363,381	9,25
363,744	9,66
364,108	10,89
364,472	11,76
364,835	12,02
365,199	13,32
365,562	12,88
365,926	11,17
366,289	11,79
366,652	12,05
367,016	13,63
367,379	13,72
367,742	13,82
368,105	13,39
368,469	12,2
368,832	12,19
369,195	12,02
369,558	10,29
369,921	11,67
370,284	10,71
370,647	8,63
371,01	7,93
371,372	6,22
371,735	5,56
372,098	2,79
372,461	1,43
372,823	0,84
373,186	0,29
373,549	1,24
373,911	1,16
374,274	0,08
374,636	0,08
374,999	-1,86
375,361	-1,06
375,723	-0,99
376,086	0,25
376,448	1,73
376,81	0,98
377,172	-0,5
377,535	0,92
377,897	-0,95
378,259	-0,87
378,621	1,24
378,983	1,32
379,345	3,61
379,707	2,71
380,068	4,18
380,43	5,06
380,792	5,47
381,154	6,36
381,516	5,8
381,877	7,12
382,239	7,83
382,6	7,74
382,962	9,74
383,323	7,53
383,685	7,74
384,046	5,22
384,408	6,22
384,769	5,35
385,13	4,66
385,492	4,61
385,853	4,47
386,214	5,2
386,575	2,95
386,936	0,73
387,297	1
387,658	2,95
388,019	5,25
388,38	5,05
388,741	5,32
389,102	7,31
389,463	8,05
389,823	9,94
390,184	9,04
390,545	12,05
390,906	12,2
391,266	14,6
391,627	13,2
391,987	14,91
392,348	14,12
392,708	15,79
393,069	16,28
393,429	14,83
393,789	13,08
394,15	12,57
394,51	12,1
394,87	13,21
395,23	11,93
395,59	10,77
395,95	7,85
396,31	7,1
396,67	7,59
397,03	7,23
397,39	8,26
397,75	10,99
398,11	11,4
398,47	9,86
398,829	10,28
399,189	8,68
399,549	12,41
399,908	14,57
400,268	16
400,627	12,95
400,987	9,65
401,346	9,33
401,706	10,91
402,065	15,23
402,424	27,52
402,784	61,99
403,143	151,8
403,502	332,8
403,861	558,4
404,221	725,04
404,58	830,24
404,939	890,51
405,298	919,43
405,657	927,83
406,015	928,11
406,374	918,79
406,733	886,04
407,092	797,87
407,451	615,82
407,809	388,73
408,168	220,29
408,527	116,88
408,885	58,44
409,244	31,77
409,602	21,46
409,961	16,67
410,319	13,54
410,678	12,03
411,036	11,06
411,394	11,72
411,752	10,86
412,111	12,74
412,469	12,88
412,827	15,08
413,185	13,3
413,543	11,74
413,901	13,27
414,259	15,65
414,617	18,98
414,975	22,61
415,333	20,48
415,69	20,64
416,048	20,67
416,406	20,9
416,763	19,41
417,121	18,99
417,479	20
417,836	19,47
418,194	19,49
418,551	14,62
418,909	11,7
419,266	13,7
419,623	17,17
419,981	15,74
420,338	14,84
420,695	15,83
421,052	17,67
421,409	18,93
421,766	19,34
422,123	15,37
422,48	18,19
422,837	20,03
423,194	19,8
423,551	16,75
423,908	16,53
424,265	19,34
424,621	19,24
424,978	20,99
425,335	20,09
425,691	20,82
426,048	23,96
426,404	25,15
426,761	25,18
427,117	25,68
427,474	28,26
427,83	29,18
428,186	26,93
428,543	28,27
428,899	26,63
429,255	26,95
429,611	26,97
429,967	28,01
430,323	27
430,679	26,12
431,035	27,29
431,391	27,23
431,747	28,94
432,103	32,55
432,459	31,55
432,815	32,38
433,17	34,56
433,526	34,87
433,882	35,59
434,237	37,57
434,593	40,68
434,948	39,7
435,304	41,22
435,659	42
436,014	39,62
436,37	41,15
436,725	41,17
437,08	40,05
437,436	40,47
437,791	37,24
438,146	33,69
438,501	31,5
438,856	31,9
439,211	30,82
439,566	30,13
439,921	31,57
440,276	31
440,63	31,2
440,985	32,09
441,34	31,75
441,695	33,95
442,049	35,5
442,404	35,03
442,758	34,95
443,113	36,27
443,467	38,39
443,822	36,65
444,176	36,18
444,531	38,98
444,885	37,59
445,239	38,65
445,593	39,26
445,948	38,74
446,302	39,62
446,656	41,16
447,01	42,55
447,364	41,04
447,718	42,95
448,072	44,56
448,426	43,75
448,779	46,33
449,133	47,38
449,487	46,21
449,841	50,52
450,194	50,27
450,548	50,09
450,902	49,37
451,255	49,65
451,609	51,22
451,962	51,44
452,315	50,27
452,669	50,69
453,022	50,16
453,375	50,46
453,729	47,05
454,082	50,34
454,435	51,6
454,788	50,7
455,141	51,11
455,494	51,24
455,847	52,01
456,2	54,88
456,553	53,06
456,906	53,56
457,258	57,34
457,611	59,25
457,964	58,26
458,316	58,13
458,669	60,37
459,022	60,38
459,374	58,28
459,727	59,98
460,079	57,62
460,432	58,35
460,784	59,54
461,136	57,34
461,488	57,07
461,841	55,9
462,193	58,4
462,545	57,5
462,897	61,22
463,249	64,86
463,601	64,78
463,953	67,48
464,305	69,94
464,657	68,59
465,009	69,63
465,361	70,63
465,712	71,63
466,064	71,02
466,416	71,18
466,767	70
467,119	69,14
467,47	69,52
467,822	66,97
468,173	66,14
468,525	68,1
468,876	69,79
469,227	74,28
469,579	75,89
469,93	74,85
470,281	74,53
470,632	75,73
470,983	74,36
471,334	73,29
471,685	74,7
472,036	74,25
472,387	73,45
472,738	72,61
473,089	67,84
473,44	66,4
473,79	68,17
474,141	68,81
474,492	67,2
474,842	69,06
475,193	70,53
475,543	71,96
475,894	73,97
476,244	76,67
476,595	77,73
476,945	78,74
477,295	80,02
477,645	77,03
477,996	81,97
478,346	81,19
478,696	84,04
479,046	85,01
479,396	86,97
479,746	88,14
480,096	85,23
480,446	85,96
480,796	89,34
481,145	92,18
481,495	96,16
481,845	93,01
482,195	94,58
482,544	93,55
482,894	93,59
483,243	93,98
483,593	91,5
483,942	94,74
484,292	94,99
484,641	94,69
484,99	93,35
485,34	93,43
485,689	93,16
486,038	96,37
486,387	99,32
486,736	98,97
487,085	100,71
487,434	105,49
487,783	106,63
488,132	112,02
488,481	113,65
488,83	116,64
489,179	118,61
489,527	124,22
489,876	127,23
490,225	127,32
490,573	129,93
490,922	130,74
491,27	132,27
491,619	133,51
491,967	135,5
492,316	138,88
492,664	142,81
493,012	144,68
493,361	145,23
493,709	144,72
494,057	150,49
494,405	157,48
494,753	162,34
495,101	166,79
495,449	174,24
495,797	180,89
496,145	186,81
496,493	192,9
496,84	201,65
497,188	210,75
497,536	223,76
497,884	232,14
498,231	240,02
498,579	251,74
498,926	263,67
499,274	275,73
499,621	287,11
499,969	301,92
500,316	318,71
500,663	335,76
501,01	352,95
501,358	371,45
501,705	390,58
502,052	412,61
502,399	435,31
502,746	460,99
503,093	488,55
503,44	517,3
503,787	546,58
504,134	579,8
504,481	615,28
504,827	655,93
505,174	697,95
505,521	742,81
505,867	790,89
506,214	841,77
506,56	894,9
506,907	950,73
507,253	1009,29
507,6	1073,18
507,946	1137,2
508,292	1206,79
508,639	1277,4
508,985	1354,81
509,331	1437,17
509,677	1523,11
510,023	1610,84
510,369	1704,49
510,715	1798,32
511,061	1897,63
511,407	2000,1
511,753	2107,38
512,099	2214,44
512,444	2323,57
512,79	2430,86
513,136	2538,89
513,481	2646,53
513,827	2759,55
514,172	2868,38
514,518	2982,83
514,863	3096,88
515,209	3204,74
515,554	3309,04
515,899	3411,83
516,245	3508,44
516,59	3604,32
516,935	3696,71
517,28	3784,56
517,625	3858,6
517,97	3929,98
518,315	3987,44
518,66	4038,93
519,005	4086,65
519,35	4122,27
519,695	4153,9
520,039	4181,26
520,384	4194,44
520,729	4195,33
521,073	4192,37
521,418	4186,81
521,762	4166,49
522,107	4143,1
522,451	4107,47
522,796	4065,93
523,14	4023,71
523,484	3973,42
523,829	3920,84
524,173	3865,09
524,517	3807,45
524,861	3741,93
525,205	3671,51
525,549	3606,03
525,893	3538,26
526,237	3473,8
526,581	3406,95
526,925	3340,16
527,269	3272,75
527,612	3203,64
527,956	3134,7
528,3	3067,05
528,643	3002,91
528,987	2939,06
529,33	2879,18
529,674	2820,11
530,017	2759,92
530,36	2705,89
530,704	2647,41
531,047	2595,88
531,39	2545,4
531,733	2497,89
532,077	2451,7
532,42	2408,94
532,763	2365,82
533,106	2320,34
533,449	2280,86
533,792	2243,51
534,134	2202,22
534,477	2170,48
534,82	2136,24
535,163	2102,07
535,505	2069,71
535,848	2038,28
536,191	2004,74
536,533	1975,43
536,876	1949,41
537,218	1921,21
537,56	1894,18
537,903	1868,7
538,245	1842,04
538,587	1816
538,93	1789,61
539,272	1764,24
539,614	1742,24
539,956	1719,53
540,298	1698,96
540,64	1678,72
540,982	1660,08
541,324	1641,43
541,666	1626,16
542,007	1606,63
542,349	1589,19
542,691	1576,49
543,032	1563,29
543,374	1549,53
543,716	1539,15
544,057	1527,84
544,398	1515,84
544,74	1501,98
545,081	1490,04
545,423	1477,33
545,764	1468,59
546,105	1459,58
546,446	1448,23
546,787	1439,18
547,128	1431,53
547,469	1423,7
547,81	1418,84
548,151	1414,48
548,492	1412,91
548,833	1411,95
549,174	1414,92
549,515	1415,24
549,855	1413,81
550,196	1414,81
550,537	1416
550,877	1417,77
551,218	1419,82
551,558	1420,01
551,899	1419,36
552,239	1418,62
552,579	1417,72
552,92	1415,52
553,26	1417,43
553,6	1420,89
553,94	1424,26
554,28	1426,72
554,62	1430,44
554,96	1433,71
555,3	1438,47
555,64	1443,55
555,98	1451,02
556,32	1457,04
556,66	1461,41
556,999	1467,96
557,339	1470,84
557,679	1476,4
558,018	1485,1
558,358	1494,3
558,697	1503,65
559,037	1516,24
559,376	1528,16
559,715	1541,39
560,055	1556,88
560,394	1574,21
560,733	1590,59
561,072	1613,77
561,411	1636,86
561,75	1658,15
562,089	1681,72
562,428	1706,99
562,767	1734,27
563,106	1765,04
563,445	1797,6
563,784	1832,8
564,122	1869,88
564,461	1912,36
564,8	1954,85
565,138	2000,92
565,477	2053,5
565,815	2109,23
566,154	2167,36
566,492	2230,36
566,83	2299,02
567,169	2369,36
567,507	2450,84
567,845	2534,86
568,183	2624,68
568,521	2719,8
568,859	2816,22
569,197	2918,34
569,535	3028,73
569,873	3146,71
570,211	3268,29
570,549	3396,42
570,887	3533,07
571,224	3666,71
571,562	3810,49
571,9	3960,88
572,237	4113,77
572,575	4281,53
572,912	4451,81
573,25	4622,2
573,587	4798,34
573,924	4980,97
574,262	5165,44
574,599	5353,52
574,936	5546,05
575,273	5740,6
575,61	5933,86
575,947	6131,92
576,284	6325,9
576,621	6521,12
576,958	6717,8
577,295	6914,22
577,632	7103,39
577,969	7293,2
578,305	7480,54
578,642	7657,8
578,979	7833,26
579,315	7997,06
579,652	8152,68
579,988	8298,37
580,325	8439,69
580,661	8565,71
580,997	8677,05
581,334	8774,71
581,67	8864,14
582,006	8927,94
582,342	8988,01
582,678	9023,48
583,014	9050
583,35	9065,44
583,686	9062,58
584,022	9041,99
584,358	9008,39
584,694	8966,51
585,029	8917,66
585,365	8845,44
585,701	8766,89
586,036	8678,24
586,372	8583,26
586,707	8480,64
587,043	8363,14
587,378	8241,08
587,714	8113,91
588,049	7980,65
588,384	7841,2
588,719	7695,43
589,054	7547,81
589,39	7401,89
589,725	7248,56
590,06	7095,53
590,395	6939,21
590,729	6787,62
591,064	6633,12
591,399	6478,7
591,734	6327,59
592,069	6175,17
592,403	6025,97
592,738	5880,93
593,073	5738,63
593,407	5598,36
593,742	5460,97
594,076	5325,34
594,41	5194,08
594,745	5067,73
595,079	4940,97
595,413	4822,58
595,747	4707,98
596,081	4592,7
596,416	4479,18
596,75	4369,24
597,084	4265,22
597,418	4163,31
597,751	4064,9
598,085	3970,73
598,419	3879,99
598,753	3791,61
599,086	3706,78
599,42	3622,19
599,754	3542,79
600,087	3468
600,421	3395,35
600,754	3321,68
601,088	3250,57
601,421	3189,44
601,754	3121,58
602,088	3060,19
602,421	3002,73
602,754	2943,82
603,087	2889,01
603,42	2835,52
603,753	2781,92
604,086	2733,44
604,419	2686,98
604,752	2643,82
605,085	2596,55
605,417	2558,43
605,75	2517,79
606,083	2478,84
606,415	2441,5
606,748	2406
607,08	2370,99
607,413	2339,11
607,745	2307,51
608,078	2279,02
608,41	2251,75
608,742	2219,98
609,074	2189,99
609,407	2164,01
609,739	2137,1
610,071	2109,84
610,403	2085,19
610,735	2061,84
611,067	2039,42
611,399	2017,69
611,73	1994,84
612,062	1974,08
612,394	1955,82
612,726	1940,26
613,057	1924,57
613,389	1909,12
613,72	1897,17
614,052	1882,47
614,383	1870,61
614,715	1858,74
615,046	1845,74
615,377	1840,66
615,708	1831,68
616,04	1829,67
616,371	1820,78
616,702	1811,76
617,033	1808,09
617,364	1802,54
617,695	1800,06
618,026	1797,6
618,356	1796,3
618,687	1797,65
619,018	1794,64
619,349	1798,9
619,679	1797,32
620,01	1800,07
620,34	1804,44
620,671	1807,75
621,001	1808,73
621,332	1810,25
621,662	1814,86
621,992	1820,85
622,322	1824,05
622,653	1831,6
622,983	1829,79
623,313	1835,44
623,643	1840,79
623,973	1845,43
624,303	1851,89
624,633	1859,75
624,962	1866,46
625,292	1869,42
625,622	1872,6
625,952	1876,25
626,281	1878,68
626,611	1884,56
626,94	1887,55
627,27	1887,41
627,599	1889,02
627,929	1886,96
628,258	1888,09
628,587	1892,28
628,916	1896,25
629,246	1899,54
629,575	1899,91
629,904	1899,72
630,233	1899,17
630,562	1900,19
630,891	1901,44
631,22	1900,01
631,548	1900,05
631,877	1896,78
632,206	1894,19
632,535	1892,3
632,863	1885,94
633,192	1883,59
633,52	1876,52
633,849	1875,1
634,177	1865,02
634,506	1860,34
634,834	1854,37
635,162	1847,9
635,49	1839,19
635,819	1825,68
636,147	1814,93
636,475	1805,64
636,803	1792,38
637,131	1781,03
637,459	1764,83
637,787	1753,18
638,114	1735,43
638,442	1718,32
638,77	1699,82
639,098	1684,92
639,425	1668,96
639,753	1645,42
640,08	1622,44
640,408	1601,48
640,735	1581,78
641,062	1558,22
641,39	1534,82
641,717	1513,46
642,044	1491,04
642,371	1469,74
642,699	1444,79
643,026	1420,66
643,353	1400,08
643,68	1380,11
644,006	1356,39
644,333	1330,08
644,66	1307,56
644,987	1284,17
645,314	1261,15
645,64	1236,31
645,967	1211,1
646,293	1187,31
646,62	1162,89
646,946	1138,21
647,273	1113,27
647,599	1091,41
647,925	1067,81
648,252	1045,11
648,578	1023,15
648,904	1000,85
649,23	982,23
649,556	961,14
649,882	939,21
650,208	923,16
650,534	903,06
650,86	885,26
651,185	865,81
651,511	850,43
651,837	832,1
652,162	815,6
652,488	799,64
652,814	781,28
653,139	765,25
653,464	753,15
653,79	733,94
654,115	719,11
654,44	703,71
654,766	690,69
655,091	676,66
655,416	662,46
655,741	646,52
656,066	633,54
656,391	622,19
656,716	610,23
657,041	596,01
657,366	583,8
657,69	574,18
658,015	562,81
658,34	552
658,664	541,4
658,989	532,05
659,313	524,16
659,638	511,52
659,962	500,41
660,286	490,4
660,611	480,75
660,935	473,66
661,259	463,58
661,583	455,74
661,907	448,16
662,231	436,86
662,555	431,07
662,879	425,39
663,203	420,16
663,527	413,69
663,851	408,03
664,175	401,42
664,498	395,8
664,822	390,46
665,145	385,15
665,469	377,35
665,792	373,65
666,116	367,4
666,439	362,18
666,763	356,52
667,086	352,37
667,409	347,32
667,732	342,81
668,055	338
668,378	333,98
668,701	330,27
669,024	326,57
669,347	321,9
669,67	316,27
669,993	309,32
670,316	303,47
670,638	297,81
670,961	292,67
671,283	291,27
671,606	286,51
671,928	280,03
672,251	272,79
672,573	271,21
672,896	269
673,218	266,5
673,54	265,03
673,862	262,33
674,184	261,59
674,506	257,68
674,828	253,29
675,15	250,55
675,472	251,34
675,794	250,34
676,116	248,38
676,438	243,64
676,759	239,89
677,081	237,84
677,403	237,17
677,724	233,14
678,046	232,96
678,367	228,78
678,689	225,92
679,01	222,34
679,331	220,21
679,652	217,84
679,974	216,62
680,295	217,44
680,616	214,41
680,937	213,82
681,258	212,95
681,579	211,17
681,9	211,13
682,22	209,22
682,541	208,24
682,862	205,01
683,183	202,89
683,503	199,7
683,824	198,17
684,144	196,56
684,465	193,58
684,785	190,12
685,105	188,07
685,426	187,48
685,746	188,03
686,066	186,8
686,386	188,35
686,706	187
687,026	189,62
687,346	188,26
687,666	185,92
687,986	186,99
688,306	188,9
688,626	187,73
688,945	185,45
689,265	183,02
689,585	180,68
689,904	178,33
690,224	176,4
690,543	175,54
690,862	174,63
691,182	172,76
691,501	167,63
691,82	164,05
692,139	161,27
692,459	158,71
692,778	157,73
693,097	154,54
693,416	153,57
693,735	153
694,053	147,46
694,372	144,89
694,691	145,29
695,01	145,88
695,328	145,11
695,647	143,87
695,966	144,56
696,284	142,21
696,602	141,88
696,921	139,41
697,239	136,15
697,557	137,94
697,876	133,12
698,194	129,75
698,512	127
698,83	125,42
699,148	125,61
699,466	124,72
699,784	122,57
700,102	120,57
700,42	122,03
700,737	119,92
701,055	115,98
701,373	116,72
701,69	118,44
702,008	114,01
702,325	112,45
702,643	112,12
702,96	108,08
703,277	106,31
703,595	106,48
703,912	102,22
704,229	97,94
704,546	97,44
704,863	97,49
705,18	92,24
705,497	92,8
705,814	91,73
706,131	88,57
706,448	88,65
706,764	90,01
707,081	88,68
707,398	88,49
707,714	90,45
708,031	88,49
708,347	84,9
708,664	84,69
708,98	85,08
709,296	83,65
709,613	80,18
709,929	78,48
710,245	75,15
710,561	71,88
710,877	69,57
711,193	68,52
711,509	66,82
711,825	66,96
712,141	66,79
712,457	63,78
712,772	63,69
713,088	64,47
713,403	62,63
713,719	62,5
714,035	61,83
714,35	61,01
714,665	60,99
714,981	60,74
715,296	58,38
715,611	56,3
715,926	57,54
716,242	55,7
716,557	55,16
716,872	56,3
717,187	56,21
717,502	55,85
717,816	53,38
718,131	52,95
718,446	53,55
718,761	52,3
719,075	50,39
719,39	49,7
719,704	47,79
720,019	46,59
720,333	44,2
720,648	42,92
720,962	42,25
721,276	42,12
721,59	38,55
721,905	37,33
722,219	38,11
722,533	38,93
722,847	35,71
723,161	35,63
723,475	34,77
723,788	34,06
724,102	31,1
724,416	32,32
724,73	32,62
725,043	33,93
725,357	33,38
725,67	32,13
725,984	33,39
726,297	33,82
726,61	34,31
726,924	33,45
727,237	32,49
727,55	32,81
727,863	29,98
728,176	29,87
728,489	29,73
728,802	29,18
729,115	31
729,428	29,79
729,741	28,24
730,054	25,55
730,366	26,65
730,679	27,55
730,992	29,5
731,304	31,29
731,617	30,45
731,929	28,88
732,241	27,52
732,554	28,1
732,866	26,45
733,178	29,4
733,49	30,56
733,802	31,66
734,114	30,07
734,426	27,9
734,738	26,18
735,05	25,92
735,362	24,29
735,674	23,23
735,985	20,9
736,297	21,74
736,609	20,38
736,92	21,63
737,232	18,57
737,543	18,78
737,854	18,87
738,166	16,3
738,477	17,42
738,788	20
739,099	22,2
739,411	19,43
739,722	17,64
740,033	17,83
740,344	14,67
740,654	14,06
740,965	15,02
741,276	13,96
741,587	14,91
741,897	13,62
742,208	11,03
742,519	3,22
742,829	5,49
743,14	5,82
743,45	5,15
743,76	4,53
744,071	3,77
744,381	2,33
744,691	2,3
745,001	3,93
745,311	2,57
745,621	3,34
745,931	8,75
746,241	9,35
746,551	10,75
746,861	10,13
747,17	11,41
747,48	11,7
747,79	13,96
748,099	14,59
748,409	13,52
748,718	16,96
749,027	17,57
749,337	17,86
749,646	15,9
749,955	14,94
750,265	15,97
750,574	14,62
750,883	16,4
751,192	15,07
751,501	14,04
751,81	14,82
752,118	11,58
752,427	9,52
752,736	10,48
753,045	11,58
753,353	11,55
753,662	11,29
753,97	9,92
754,279	9,12
754,587	8,82
754,896	11,79
755,204	11,34
755,512	11,99
755,82	15,58
756,128	15,48
756,436	14,86
756,744	14,68
757,052	14,29
757,36	16,51
757,668	17,46
757,976	17,61
758,284	17,12
758,591	15,99
758,899	16,16
759,207	13,22
759,514	11,85
759,821	9,43
760,129	8,46
760,436	8,28
760,744	8,99
761,051	8,81
761,358	7,02
761,665	4,92
761,972	7,87
762,279	9,02
762,586	10,44
762,893	11,02
763,2	11,99
763,507	12,27
763,813	10,69
764,12	9,52
764,427	7,35
764,733	7,3
765,04	7,74
765,346	5,18
765,653	3,12
765,959	1,58
766,265	0,02
766,571	1,97
766,878	2,15
767,184	2,81
767,49	2,81
767,796	3,43
768,102	5,99
768,408	6,08
768,713	5,75
769,019	5,05
769,325	5,84
769,631	7,83
769,936	7,21
770,242	6,51
770,547	6,93
770,853	8,48
771,158	9,69
771,463	7,47
771,769	6,79
772,074	7,06
772,379	8,14
772,684	6,6
772,989	4,22
773,294	4,09
773,599	3,02
773,904	1,54
774,209	0,71
774,514	-0,61
774,818	-2,31
775,123	-2,63
775,428	-3,69
775,732	-4,42
776,037	-4,76
776,341	-3,06
776,645	-2,29
776,95	-0,71
777,254	0,17
777,558	-0,31
777,862	-0,13
778,166	1,74
778,47	2,38
778,774	3,13
779,078	4,55
779,382	7,52
779,686	9,35
779,99	9,06
780,293	8,49
780,597	9,68
780,901	9,41
781,204	8,93
781,508	10,23
781,811	10,65
782,114	10,56
782,418	9,7
782,721	9,7
783,024	9,75
783,327	7,12
783,63	10,32
783,933	9,22
784,236	9,57
784,539	9,88
784,842	7,29
785,145	9,27
785,447	9,15
785,75	7,54
786,053	5,15
786,355	4,07
786,658	5
786,96	3,21
787,263	4,04
787,565	3,64
787,867	3,32
788,169	5,94
788,472	3,64
788,774	4,31
789,076	5,06
789,378	5,52
789,68	5,83
789,982	8,68
790,283	6,82
790,585	7,6
790,887	7,02
791,188	7,35
791,49	4,83
791,792	2,6
792,093	3,82
792,394	2,95
792,696	3,58
792,997	0,24
793,298	-3,15
793,6	-0,26
793,901	-2,02
794,202	-1,65
794,503	-1,01
794,804	-0,22
795,105	1,57
795,405	0,01
795,706	1,04
796,007	0,3
796,308	3,14
796,608	5,37
796,909	2,61
797,209	2,12
797,51	1,84
797,81	-0,24
798,11	-1,95
798,411	-0,4
798,711	-0,72
799,011	-0,74
799,311	1,21
799,611	2,09
799,911	0,66
800,211	1,06
800,511	4,3
800,811	5,54
801,111	7,95
801,41	7,64
801,71	5,54
802,009	4,82
802,309	5,01
802,608	2,27
802,908	1,7
803,207	2,96
803,507	2,31
803,806	-1,45
804,105	0,16
804,404	0,89
804,703	5,11
805,002	6,35
805,301	9,49
805,6	9,75
805,899	10,38
806,198	10,32
806,496	11,62
806,795	14,12
807,094	17,42
807,392	17,23
807,691	16,31
807,989	12,66
808,287	13,58
808,586	11,97
808,884	11,74
809,182	12,42
809,48	11,21
809,778	9,23
810,076	7,42
810,374	5,17
810,672	1,86
810,97	2,38
811,268	5,78
811,566	3,68
811,863	3,36
812,161	2,81
812,458	3,75
812,756	3,79
813,053	3,01
813,351	4,14
813,648	5,31
813,945	5,9
814,242	4,45
814,54	3,66
814,837	2,62
815,134	4,02
815,431	7,61
815,728	4,69
816,025	3,65
816,321	4,15
816,618	3,37
816,915	1,86
817,211	3,32
817,508	2,42
817,804	1,47
818,101	3,11
818,397	1,54
818,694	-3,32
818,99	-0,46
819,286	2,13
819,582	2,17
819,878	2,61
820,174	3,73
820,47	2,32
820,766	3,65
821,062	3,84
821,358	2,69
821,654	3,24
821,949	6,1
822,245	2,45
822,541	1,62
822,836	1,94
823,132	1,79
823,427	-1,12
823,722	-1,67
824,018	-0,59
824,313	-0,65
824,608	1,03
824,903	0,03
825,198	-1,49
825,493	-0,29
825,788	-2,86
826,083	-1,68
826,378	-2,47
826,672	-0,67
826,967	2,37
827,262	1,68
827,556	2,01
827,851	-0,56
828,145	0,81
828,44	0,84
828,734	2,97
829,028	5,73
829,323	4,03
829,617	4,6
829,911	6,49
830,205	5,22
830,499	6,05
830,793	5,18
831,087	6,81
831,381	6,1
831,674	8,36
831,968	8,15
832,262	7,31
832,555	6,57
832,849	7,14
833,142	6,79
833,436	7,03
833,729	4,66
834,022	4,54
834,315	5,14
834,609	4,78
834,902	2,83
835,195	1,64
835,488	1,44
835,781	2,05
836,074	0,39
836,366	-0,67
836,659	-0,66
836,952	-0,1
837,244	2,13
837,537	2,7
837,829	4,24
838,122	5,26
838,414	6,79
838,707	7,46
838,999	8,32
839,291	9,39
839,583	8,4
839,875	8,9
840,167	9,53
840,459	6,38
840,751	3,91
841,043	1,41
841,335	0,17
841,627	-0,38
841,918	-0,36
842,21	0,94
842,502	0,19
842,793	1,05
843,085	0,17
843,376	1,8
843,667	4,46
843,959	7,53
844,25	9,94
844,541	9,66
844,832	9,2
845,123	9,1
845,414	8,26
845,705	10,27
845,996	10,03
846,287	7,71
846,577	5,76
846,868	4,03
847,159	1,17
847,449	0,76
847,74	1,25
848,03	1,25
848,32	-2,36
848,611	-3,9
848,901	-6,66
849,191	-5,97
849,481	-4,1
849,771	-3,66
850,061	-3,54
850,351	-1,42
850,641	-2,65
850,931	-2,04
851,221	-2,87
851,511	0,4
851,8	3,28
852,09	2,89
852,379	3,19
852,669	3,4
852,958	3,89
853,248	4,46
853,537	4,18
853,826	5,1
854,115	5,17
854,404	6,44
854,693	7,15
854,982	4,43
855,271	5,36
855,56	4,75
855,849	4,22
856,138	4,09
856,427	1,52
856,715	1,56
857,004	2
857,292	2,17
857,581	0,12
857,869	-1,84
858,157	-2
858,446	-1,67
858,734	-1,66
859,022	-0,62
859,31	0,26
859,598	2,86
859,886	2,45
860,174	2,81
860,462	1,93
860,75	3,08
861,037	3,65
861,325	3,79
861,613	3,47
861,9	5,68
862,188	5,44
862,475	5,47
862,763	5,11
863,05	6,57
863,337	4,14
863,624	3,19
863,911	2,86
864,199	3,21
864,486	2,72
864,772	4,68
865,059	3,82
865,346	5,11
865,633	4,52
865,92	4,6
866,206	3,3
866,493	4,87
866,779	5,44
867,066	6,28
867,352	5,92
867,639	7,78
867,925	7,92
868,211	8,15
868,497	5,54
868,783	4,05
869,069	3,44
869,355	1,99
869,641	0,38
869,927	-0,52
870,213	0,05
870,499	0,83
870,784	-1,11
871,07	-2,59
871,356	-2,62
871,641	-1,26
871,926	-0,78
872,212	-0,68
872,497	-0,35
872,782	1,35
873,068	3,02
873,353	1,97
873,638	2,02
873,923	2,7
874,208	3,65
874,493	1,44
874,777	2,8
875,062	3,01
875,347	3,81
875,632	4,02
875,916	3,15
876,201	2,75
876,485	4,04
876,77	4,03
877,054	6,11
877,338	5,44
877,622	4,83
877,906	4,15
878,191	4,97
878,475	6,04
878,759	6,98
879,042	7,91
879,326	9,15
879,61	8,8
879,894	9,79
