Data from Subt4__54__54.txt Node

Date: Fri Jun 07 14:39:52 CEST 2024
User: Naturwissenschaft
Spectrometer: FLMS00572
Trigger mode: 0
Integration Time (sec): 5,000000E-2
Scans to average: 20
Electric dark correction enabled: true
Nonlinearity correction enabled: false
Boxcar width: 5
XAxis mode: Wavelengths
Number of Pixels in Spectrum: 2048
>>>>>Begin Spectral Data<<<<<
190,164	-9,35
190,544	-4,97
190,925	-2,5
191,306	-2,98
191,687	-2,73
192,067	-3,81
192,448	-3,08
192,829	-1,4
193,209	-1,41
193,59	-1,76
193,97	-0,46
194,351	-2,08
194,731	-2,74
195,112	-4,95
195,492	-3,37
195,872	-3,54
196,253	-2,26
196,633	0,23
197,013	1,32
197,393	4,23
197,773	6,91
198,154	4,99
198,534	7,84
198,914	6,76
199,294	6,78
199,674	6,43
200,054	6,85
200,434	6,51
200,814	7,09
201,194	7,54
201,573	5,72
201,953	3,71
202,333	2,67
202,713	1,44
203,092	0,12
203,472	1,13
203,852	3,67
204,231	5,4
204,611	6,13
204,99	4,05
205,37	2,8
205,749	3,7
206,129	5,51
206,508	7,88
206,887	8,72
207,267	7,89
207,646	9,22
208,025	6
208,405	3,37
208,784	2,55
209,163	3,11
209,542	3,71
209,921	2,13
210,3	2,55
210,679	2,06
211,058	1,83
211,437	6,06
211,816	5,14
212,195	5,14
212,574	6,09
212,952	7,07
213,331	7,13
213,71	6,11
214,089	8,51
214,467	8,58
214,846	9,67
215,225	7,46
215,603	6,79
215,982	6,09
216,36	6,43
216,739	7,08
217,117	8,2
217,495	8,14
217,874	7,71
218,252	5,73
218,63	3,39
219,009	1,23
219,387	1,45
219,765	2
220,143	4,04
220,521	5,95
220,899	4,46
221,277	4,2
221,655	5,23
222,033	6,47
222,411	10,07
222,789	11,83
223,167	14,52
223,545	14,66
223,923	14,34
224,301	13,63
224,678	12,62
225,056	12,9
225,434	11,48
225,811	11,74
226,189	11,59
226,566	8,25
226,944	8,86
227,321	7,04
227,699	6,7
228,076	5,47
228,454	5,19
228,831	4,65
229,208	6,32
229,586	6,11
229,963	6,07
230,34	5,66
230,717	8,62
231,094	8,03
231,471	8,89
231,848	8,67
232,225	8,76
232,602	8,99
232,979	8,24
233,356	7,08
233,733	7,04
234,11	6,14
234,487	6,65
234,864	4,06
235,24	4,75
235,617	3,97
235,994	4,47
236,37	5,02
236,747	4,98
237,124	5,73
237,5	3,56
237,877	3,14
238,253	3,76
238,63	3,36
239,006	4,61
239,382	3,98
239,759	4,27
240,135	4,56
240,511	3,16
240,887	1,51
241,264	1,02
241,64	2,08
242,016	3,57
242,392	2,6
242,768	4
243,144	3,48
243,52	1,1
243,896	1,64
244,272	2,52
244,648	3,65
245,023	2,75
245,399	3,55
245,775	3,62
246,151	2,81
246,526	1,97
246,902	0,7
247,278	-1,12
247,653	-0,4
248,029	-0,5
248,404	-0,2
248,78	0,28
249,155	-0,22
249,53	-0,77
249,906	1,47
250,281	3,45
250,656	5,43
251,032	5,6
251,407	6,11
251,782	8,22
252,157	7,69
252,532	8,06
252,907	6,98
253,282	9,07
253,657	10,51
254,032	10,17
254,407	9,36
254,782	8,74
255,157	8,76
255,532	10,06
255,907	10,79
256,281	10,91
256,656	10,93
257,031	10,21
257,405	9,42
257,78	7,84
258,155	7,89
258,529	8,4
258,904	4,78
259,278	5,84
259,652	7,15
260,027	5,43
260,401	5,53
260,775	5,59
261,15	6,62
261,524	7,66
261,898	6,46
262,272	6,21
262,646	3,55
263,021	7,76
263,395	7,84
263,769	6,23
264,143	7,85
264,517	6,5
264,89	6,47
265,264	3,95
265,638	4,66
266,012	6,33
266,386	5,33
266,76	5,2
267,133	3,67
267,507	2,11
267,88	2,79
268,254	2,01
268,628	2,82
269,001	1,12
269,375	5,33
269,748	6,78
270,121	6,96
270,495	8,31
270,868	10,33
271,241	11,4
271,615	12,06
271,988	11,1
272,361	9,55
272,734	9,54
273,107	11,75
273,48	9,78
273,853	5,83
274,226	7,13
274,599	6,23
274,972	6,18
275,345	6,45
275,718	6,33
276,091	6,25
276,464	6,48
276,836	6,04
277,209	5,43
277,582	4,59
277,954	8,41
278,327	7,13
278,7	7,08
279,072	6,15
279,445	6,62
279,817	6,99
280,189	8,56
280,562	10,76
280,934	12,96
281,306	11,52
281,679	12,96
282,051	11,6
282,423	10,09
282,795	11,18
283,167	13,21
283,539	12,88
283,911	12,43
284,283	10,03
284,655	9,47
285,027	8,25
285,399	9,22
285,771	10,07
286,143	8,06
286,515	8,42
286,886	6,82
287,258	4,79
287,63	4,43
288,001	3,79
288,373	6,41
288,745	3,31
289,116	2,45
289,488	1,44
289,859	-1,12
290,23	0,38
290,602	1,08
290,973	-0,11
291,344	1,78
291,716	1,77
292,087	2,12
292,458	1,87
292,829	2,92
293,2	3,84
293,571	3,92
293,942	4,03
294,313	4,62
294,684	4,89
295,055	6,17
295,426	6,68
295,797	8,64
296,168	9,07
296,539	8,76
296,909	11,32
297,28	10,51
297,651	11,35
298,021	13,03
298,392	11,8
298,763	11,32
299,133	12,04
299,503	8,68
299,874	3,98
300,244	4,3
300,615	3,28
300,985	2,18
301,355	3,9
301,726	3,97
302,096	1,44
302,466	2,24
302,836	1,69
303,206	3,79
303,576	6,14
303,946	8,51
304,316	7,4
304,686	8,96
305,056	10,62
305,426	8,33
305,796	7,81
306,166	8,46
306,535	8,39
306,905	8,91
307,275	5,6
307,644	4,84
308,014	6,17
308,383	5,73
308,753	3,31
309,122	1,42
309,492	2,24
309,861	3,52
310,231	4,18
310,6	2,97
310,969	4,54
311,339	5,46
311,708	4,4
312,077	1,45
312,446	3,51
312,815	4,78
313,184	3,69
313,553	3,98
313,922	4,53
314,291	5,42
314,66	8,63
315,029	7,61
315,398	6,69
315,767	7,54
316,136	8,03
316,504	6,35
316,873	7,03
317,242	6,51
317,61	5,73
317,979	4,9
318,347	4,54
318,716	1,01
319,084	1,3
319,453	3,35
319,821	5,65
320,189	8,4
320,558	9,92
320,926	9,96
321,294	10,66
321,662	10,98
322,031	12,6
322,399	12,34
322,767	15,17
323,135	14,44
323,503	13,53
323,871	10,99
324,239	10,94
324,607	9,85
324,974	10,12
325,342	11,9
325,71	12,11
326,078	11,08
326,445	13,86
326,813	11,75
327,181	10,84
327,548	11,49
327,916	12,12
328,283	8,31
328,651	9,37
329,018	8,38
329,385	6,69
329,753	5,89
330,12	3,88
330,487	-0,69
330,855	1,78
331,222	1,6
331,589	1,3
331,956	1,68
332,323	1,92
332,69	-0,09
333,057	0,62
333,424	1
333,791	3,6
334,158	2,23
334,525	5,09
334,892	3,19
335,258	2,49
335,625	2,65
335,992	1,17
336,358	1,2
336,725	2,11
337,091	1,15
337,458	1,77
337,824	-1,44
338,191	-1,11
338,557	-2,47
338,924	-2,37
339,29	-0,25
339,656	-0,01
340,023	0,8
340,389	1,57
340,755	1,47
341,121	1,87
341,487	-0,14
341,853	2,3
342,219	5,95
342,585	8,17
342,951	7,33
343,317	8,37
343,683	7,22
344,049	4,77
344,415	6,85
344,78	5,54
345,146	7,21
345,512	8,89
345,877	9,31
346,243	6,73
346,608	5,93
346,974	7,92
347,339	6,83
347,705	8,32
348,07	9,38
348,436	9,25
348,801	11,23
349,166	8,76
349,531	9,36
349,897	9,93
350,262	12
350,627	10,79
350,992	10,08
351,357	10,02
351,722	8,53
352,087	11,29
352,452	11
352,817	10,12
353,181	12,07
353,546	10,82
353,911	6,87
354,276	6,45
354,64	7,47
355,005	8,62
355,37	8,72
355,734	10,16
356,099	10,31
356,463	10,07
356,828	10,53
357,192	8,75
357,556	9,53
357,921	12,58
358,285	11,24
358,649	10,61
359,013	10,68
359,378	10,53
359,742	10,53
360,106	8,82
360,47	9,18
360,834	9,86
361,198	10,6
361,562	10,68
361,926	9,6
362,289	9,86
362,653	11,24
363,017	9,82
363,381	10,21
363,744	9,21
364,108	11,43
364,472	10,89
364,835	10,87
365,199	11,26
365,562	11,17
365,926	9,77
366,289	9,93
366,652	9,26
367,016	10,23
367,379	10,59
367,742	11,63
368,105	11,06
368,469	10,47
368,832	11,68
369,195	11,88
369,558	9,75
369,921	9,23
370,284	9,45
370,647	8,71
371,01	6,68
371,372	4,96
371,735	4,61
372,098	2,62
372,461	1,47
372,823	0,31
373,186	0,9
373,549	0,31
373,911	4,3
374,274	4,3
374,636	4,24
374,999	4,76
375,361	5,59
375,723	5,72
376,086	7,53
376,448	9,31
376,81	8,33
377,172	7,23
377,535	10,5
377,897	8,27
378,259	8,07
378,621	7,05
378,983	8,32
379,345	10,29
379,707	9,28
380,068	8,07
380,43	7,96
380,792	9,25
381,154	9,42
381,516	6,82
381,877	6,01
382,239	6,26
382,6	8,31
382,962	7,98
383,323	6,16
383,685	6,94
384,046	5,79
384,408	7
384,769	5,5
385,13	6,07
385,492	7,56
385,853	7,19
386,214	8,89
386,575	7,5
386,936	7,04
387,297	6,91
387,658	7,41
388,019	10,04
388,38	9,03
388,741	9,23
389,102	8,38
389,463	8,21
389,823	9,81
390,184	8,69
390,545	10,97
390,906	11,24
391,266	12,47
391,627	11,25
391,987	9,98
392,348	9,55
392,708	10,24
393,069	11,18
393,429	11,15
393,789	11,72
394,15	10,84
394,51	10,94
394,87	11,1
395,23	11,68
395,59	11,14
395,95	10,03
396,31	9,72
396,67	10,99
397,03	13,16
397,39	15,2
397,75	14,72
398,11	14,23
398,47	10,25
398,829	11,17
399,189	9,21
399,549	11,21
399,908	12,28
400,268	11,81
400,627	10,35
400,987	7,24
401,346	5,06
401,706	7,5
402,065	12,14
402,424	26,59
402,784	55,97
403,143	139,87
403,502	317,5
403,861	547,65
404,221	721,2
404,58	827,16
404,939	889,54
405,298	922,82
405,657	932,31
406,015	932,04
406,374	922,27
406,733	893,17
407,092	809,88
407,451	633,47
407,809	402,7
408,168	229,94
408,527	124,58
408,885	62,25
409,244	30,47
409,602	19,29
409,961	15,37
410,319	14,05
410,678	12,66
411,036	14,24
411,394	12,38
411,752	12,98
412,111	14,94
412,469	14,33
412,827	14,34
413,185	13,77
413,543	12,69
413,901	13,59
414,259	13,96
414,617	17,73
414,975	17,54
415,333	17,46
415,69	16,69
416,048	16,29
416,406	17,04
416,763	19,15
417,121	19,08
417,479	19,84
417,836	18,21
418,194	18,51
418,551	15,1
418,909	13,97
419,266	16,2
419,623	19,2
419,981	19,61
420,338	19,3
420,695	18,67
421,052	19,28
421,409	20,34
421,766	23,25
422,123	20
422,48	21,03
422,837	21
423,194	18,23
423,551	17,08
423,908	16,93
424,265	18,48
424,621	17,35
424,978	18,78
425,335	19,65
425,691	18,32
426,048	22,72
426,404	23,74
426,761	25,59
427,117	25,91
427,474	25,88
427,83	25,03
428,186	26,35
428,543	28,57
428,899	27,91
429,255	26,54
429,611	28,54
429,967	27,96
430,323	26,26
430,679	25,97
431,035	27,73
431,391	28,64
431,747	31,16
432,103	30,52
432,459	30,75
432,815	31,48
433,17	33,51
433,526	30,91
433,882	31,47
434,237	32,06
434,593	32,6
434,948	32,4
435,304	34,2
435,659	32,88
436,014	32,41
436,37	33,38
436,725	33,1
437,08	32,79
437,436	36,46
437,791	34,65
438,146	34,71
438,501	32,53
438,856	34,16
439,211	33,32
439,566	34,6
439,921	36,19
440,276	36,56
440,63	36,55
440,985	35,62
441,34	34,53
441,695	36,52
442,049	36,18
442,404	37,32
442,758	36,53
443,113	38,74
443,467	38,83
443,822	36,63
444,176	35,06
444,531	36,53
444,885	36,44
445,239	36,99
445,593	36,84
445,948	38,01
446,302	40,02
446,656	40,31
447,01	39,87
447,364	40,13
447,718	41,57
448,072	41,38
448,426	42,4
448,779	44,08
449,133	43,62
449,487	43,4
449,841	45,79
450,194	46,14
450,548	45,57
450,902	46,2
451,255	46,21
451,609	48,31
451,962	50,7
452,315	51,91
452,669	52,6
453,022	55,9
453,375	55,73
453,729	54,57
454,082	54,66
454,435	56,13
454,788	54,54
455,141	54,94
455,494	55,22
455,847	54,24
456,2	54,87
456,553	55,38
456,906	54
457,258	55,22
457,611	55,12
457,964	55,28
458,316	55,54
458,669	56,74
459,022	58,53
459,374	56,46
459,727	59,02
460,079	56,05
460,432	55,21
460,784	55,76
461,136	55,78
461,488	57,35
461,841	56,37
462,193	59,42
462,545	59,43
462,897	60,88
463,249	63,79
463,601	61,37
463,953	64,01
464,305	66,35
464,657	66,63
465,009	67,74
465,361	65,85
465,712	67,65
466,064	66,86
466,416	66,72
466,767	65,28
467,119	65,94
467,47	68,3
467,822	66,07
468,173	63,91
468,525	65,45
468,876	66,91
469,227	71,46
469,579	72,69
469,93	73,16
470,281	73,89
470,632	74,34
470,983	73,05
471,334	73,01
471,685	74,08
472,036	76,87
472,387	77,26
472,738	77,66
473,089	74,61
473,44	74,02
473,79	72,78
474,141	71,78
474,492	71,43
474,842	72,19
475,193	72,95
475,543	74,31
475,894	73,74
476,244	72,96
476,595	71,38
476,945	73,97
477,295	75,22
477,645	77,08
477,996	81,64
478,346	81,72
478,696	83,6
479,046	85,06
479,396	86,51
479,746	88,06
480,096	88,05
480,446	89,48
480,796	90,85
481,145	93,98
481,495	94,82
481,845	93,62
482,195	93,92
482,544	95,04
482,894	97,06
483,243	96,67
483,593	94,59
483,942	95,24
484,292	96,18
484,641	96,87
484,99	94,15
485,34	94,91
485,689	94,49
486,038	98,19
486,387	98,86
486,736	94,7
487,085	97,08
487,434	101,23
487,783	103,21
488,132	104,99
488,481	105,77
488,83	109,26
489,179	110,23
489,527	113,8
489,876	113,92
490,225	114,56
490,573	117,34
490,922	117,91
491,27	121,01
491,619	121,59
491,967	123,73
492,316	125,32
492,664	127,54
493,012	129
493,361	128,48
493,709	129,48
494,057	131,9
494,405	136,17
494,753	137,82
495,101	135,58
495,449	137,94
495,797	139,19
496,145	141,89
496,493	143,87
496,84	147,36
497,188	152,38
497,536	159,95
497,884	163,83
498,231	167,81
498,579	174,4
498,926	182,82
499,274	189,7
499,621	196,57
499,969	202,42
500,316	212,27
500,663	220,83
501,01	227,08
501,358	234,67
501,705	245,29
502,052	254,36
502,399	265,84
502,746	276,93
503,093	289,8
503,44	304,16
503,787	318,4
504,134	332,1
504,481	346,58
504,827	366,25
505,174	386,13
505,521	406,98
505,867	430
506,214	455,21
506,56	482,54
506,907	510,11
507,253	540,02
507,6	574,46
507,946	605,62
508,292	639,38
508,639	675,06
508,985	710,85
509,331	749,71
509,677	791,27
510,023	833,49
510,369	876,31
510,715	921,69
511,061	966,64
511,407	1012,05
511,753	1062,12
512,099	1116,09
512,444	1169,2
512,79	1219,44
513,136	1271,43
513,481	1325,57
513,827	1376,44
514,172	1430,22
514,518	1482,6
514,863	1538,22
515,209	1587,82
515,554	1639,15
515,899	1686,34
516,245	1728,73
516,59	1773,9
516,935	1813,37
517,28	1848,42
517,625	1883,25
517,97	1912,94
518,315	1938,58
518,66	1956,82
519,005	1978,41
519,35	1993,46
519,695	2005,61
520,039	2015,51
520,384	2018,66
520,729	2019,11
521,073	2017,49
521,418	2010,84
521,762	1998,95
522,107	1987,75
522,451	1970,79
522,796	1950,05
523,14	1925,93
523,484	1900,92
523,829	1875,35
524,173	1851,2
524,517	1824,54
524,861	1794,74
525,205	1763,13
525,549	1731,19
525,893	1698,52
526,237	1670,32
526,581	1637,91
526,925	1608,32
527,269	1576,01
527,612	1542,44
527,956	1506,26
528,3	1474,44
528,643	1443,74
528,987	1414,24
529,33	1386,94
529,674	1360,85
530,017	1333,22
530,36	1308,87
530,704	1280,56
531,047	1256,56
531,39	1235,23
531,733	1217,96
532,077	1194,2
532,42	1175,42
532,763	1152,71
533,106	1133,56
533,449	1110,81
533,792	1091,76
534,134	1072,73
534,477	1057,4
534,82	1041,58
535,163	1024,34
535,505	1005,42
535,848	990,7
536,191	971,94
536,533	960,35
536,876	948,12
537,218	935,61
537,56	922,86
537,903	911,48
538,245	901,03
538,587	889,16
538,93	879,03
539,272	868,03
539,614	857,6
539,956	850,64
540,298	840,63
540,64	829,11
540,982	820,48
541,324	812,77
541,666	805,46
542,007	795,36
542,349	787,98
542,691	784,54
543,032	781,07
543,374	777,34
543,716	773,65
544,057	771,68
544,398	770,56
544,74	767,38
545,081	763,24
545,423	758,36
545,764	755,74
546,105	754,13
546,446	750,72
546,787	746,68
547,128	745,21
547,469	740,69
547,81	741,25
548,151	738,58
548,492	739,14
548,833	739,03
549,174	741,51
549,515	743,15
549,855	742,6
550,196	743,23
550,537	746,62
550,877	748,55
551,218	752,95
551,558	754,25
551,899	759,68
552,239	765,08
552,579	772,24
552,92	776,99
553,26	782,83
553,6	789,9
553,94	797,03
554,28	804,19
554,62	813,28
554,96	821,51
555,3	831,53
555,64	840
555,98	851,65
556,32	861,14
556,66	872,25
556,999	886,88
557,339	898,11
557,679	912,23
558,018	926,97
558,358	941,83
558,697	959,97
559,037	978,25
559,376	1000,13
559,715	1019,59
560,055	1043,5
560,394	1068,25
560,733	1094,88
561,072	1124,82
561,411	1154,4
561,75	1185,43
562,089	1221,49
562,428	1259,38
562,767	1300,59
563,106	1343,28
563,445	1387,24
563,784	1432,96
564,122	1483,28
564,461	1537,56
564,8	1596,94
565,138	1659,38
565,477	1727,6
565,815	1798,78
566,154	1873,82
566,492	1950,29
566,83	2034,38
567,169	2122,91
567,507	2223,4
567,845	2325,45
568,183	2433,37
568,521	2549,82
568,859	2670,77
569,197	2797,22
569,535	2934,09
569,873	3074,81
570,211	3227,6
570,549	3382,12
570,887	3550,28
571,224	3714,88
571,562	3893,34
571,9	4075,97
572,237	4264,48
572,575	4465,52
572,912	4673,84
573,25	4881,62
573,587	5100,53
573,924	5319,87
574,262	5548,83
574,599	5779,22
574,936	6018,93
575,273	6259,2
575,61	6508,83
575,947	6753,77
576,284	7000,71
576,621	7245,57
576,958	7495,55
577,295	7738,62
577,632	7981,99
577,969	8224,89
578,305	8464,23
578,642	8692,05
578,979	8919,22
579,315	9132
579,652	9336,38
579,988	9526,4
580,325	9711,77
580,661	9877,63
580,997	10033,03
581,334	10176,88
581,67	10298,18
582,006	10396,8
582,342	10487,73
582,678	10555,29
583,014	10606,97
583,35	10649,29
583,686	10671,13
584,022	10662,46
584,358	10644,29
584,694	10616,54
585,029	10560,4
585,365	10498,83
585,701	10423,41
586,036	10327,06
586,372	10226,11
586,707	10112,26
587,043	9977,83
587,378	9837,15
587,714	9699,11
588,049	9546,96
588,384	9381,3
588,719	9215,99
589,054	9036,28
589,39	8857,99
589,725	8678,43
590,06	8485,61
590,395	8294,11
590,729	8110,59
591,064	7924,01
591,399	7732,66
591,734	7547,32
592,069	7358,4
592,403	7175,98
592,738	6995,6
593,073	6820,39
593,407	6650,9
593,742	6483,91
594,076	6317,59
594,41	6154,26
594,745	6000,65
595,079	5846,66
595,413	5696,1
595,747	5553,81
596,081	5416
596,416	5281,47
596,75	5148,73
597,084	5021,23
597,418	4902,34
597,751	4782,69
598,085	4668,2
598,419	4555,8
598,753	4453,78
599,086	4354,76
599,42	4254,67
599,754	4155,03
600,087	4063,79
600,421	3980,27
600,754	3895,84
601,088	3812
601,421	3737,49
601,754	3661,18
602,088	3587,91
602,421	3514,63
602,754	3444,67
603,087	3381,06
603,42	3320,58
603,753	3259,9
604,086	3199,78
604,419	3139,44
604,752	3086,49
605,085	3033,81
605,417	2984,04
605,75	2932,5
606,083	2887,22
606,415	2840,7
606,748	2797,26
607,08	2755,49
607,413	2716,44
607,745	2677,67
608,078	2646,69
608,41	2609,1
608,742	2572,63
609,074	2541,68
609,407	2510,39
609,739	2479,72
610,071	2451,73
610,403	2425
610,735	2400,11
611,067	2375,49
611,399	2351,78
611,73	2325,65
612,062	2305,03
612,394	2284,31
612,726	2264,27
613,057	2246,81
613,389	2229,14
613,72	2211,99
614,052	2194,31
614,383	2178,91
614,715	2163,74
615,046	2148,69
615,377	2136,98
615,708	2123,43
616,04	2117,49
616,371	2109,82
616,702	2099,88
617,033	2095,58
617,364	2090,22
617,695	2085,97
618,026	2083,15
618,356	2082,97
618,687	2086,5
619,018	2089,91
619,349	2097,76
619,679	2098,24
620,01	2099,57
620,34	2106,37
620,671	2111,5
621,001	2118,42
621,332	2127,81
621,662	2134,08
621,992	2139,36
622,322	2143,71
622,653	2149,95
622,983	2152,92
623,313	2160,6
623,643	2168,51
623,973	2176,57
624,303	2184,16
624,633	2189,91
624,962	2195,07
625,292	2199,86
625,622	2205,47
625,952	2210,13
626,281	2215,64
626,611	2224,77
626,94	2229,93
627,27	2234,78
627,599	2240,34
627,929	2242,77
628,258	2244,82
628,587	2248,16
628,916	2253,7
629,246	2261,55
629,575	2264,21
629,904	2262,52
630,233	2260,59
630,562	2264,51
630,891	2264,39
631,22	2265,98
631,548	2265,54
631,877	2268,06
632,206	2267,18
632,535	2262,51
632,863	2257,09
633,192	2255,29
633,52	2256,47
633,849	2250,69
634,177	2238,25
634,506	2233,07
634,834	2222,37
635,162	2214,77
635,49	2203,14
635,819	2191,99
636,147	2182,7
636,475	2169,53
636,803	2157,77
637,131	2141,1
637,459	2125,5
637,787	2106,78
638,114	2088
638,442	2068,11
638,77	2047,5
639,098	2028,49
639,425	2007,83
639,753	1982,58
640,08	1957,09
640,408	1928,51
640,735	1903,68
641,062	1878,84
641,39	1855,53
641,717	1827,48
642,044	1798,93
642,371	1772,68
642,699	1744,18
643,026	1712,75
643,353	1686,42
643,68	1659,15
644,006	1631,03
644,333	1596,71
644,66	1565,81
644,987	1537,82
645,314	1510,55
645,64	1481,99
645,967	1452,94
646,293	1423,36
646,62	1400,39
646,946	1368,64
647,273	1341,65
647,599	1314,04
647,925	1290,55
648,252	1262,7
648,578	1236,67
648,904	1209,88
649,23	1185,68
649,556	1158,14
649,882	1133,59
650,208	1106,95
650,534	1086,58
650,86	1063,5
651,185	1039,34
651,511	1016,17
651,837	995,52
652,162	974,29
652,488	952,91
652,814	932,52
653,139	912,51
653,464	893,73
653,79	873,55
654,115	854,98
654,44	837,14
654,766	822,86
655,091	806,34
655,416	790,58
655,741	773,53
656,066	758,08
656,391	745,82
656,716	731,49
657,041	717,57
657,366	701,24
657,69	688
658,015	671,99
658,34	657,68
658,664	645,02
658,989	635,15
659,313	623,15
659,638	610,31
659,962	597,69
660,286	585,46
660,611	573,46
660,935	566,52
661,259	554,79
661,583	547,61
661,907	536,42
662,231	526,16
662,555	518,65
662,879	509,06
663,203	500,91
663,527	493,02
663,851	486,7
664,175	478,64
664,498	469,89
664,822	462,25
665,145	455,22
665,469	449,58
665,792	442,59
666,116	431,68
666,439	427,03
666,763	421,01
667,086	413,02
667,409	405,25
667,732	400,26
668,055	397,87
668,378	394,7
668,701	387,72
669,024	383,16
669,347	377,35
669,67	373,55
669,993	367,96
670,316	363,93
670,638	358,84
670,961	355,73
671,283	350,26
671,606	343,8
671,928	336,78
672,251	332,62
672,573	327,15
672,896	326,26
673,218	322,22
673,54	319,11
673,862	314,39
674,184	312,61
674,506	308,23
674,828	303,93
675,15	301,22
675,472	297,95
675,794	296,17
676,116	295,42
676,438	290,57
676,759	289,74
677,081	286,14
677,403	284,18
677,724	279,57
678,046	276,66
678,367	275,78
678,689	270,57
679,01	270,71
679,331	269,12
679,652	267,71
679,974	266,59
680,295	263,73
680,616	262,67
680,937	262,53
681,258	263,25
681,579	263,9
681,9	260,13
682,22	257,57
682,541	254,45
682,862	247,18
683,183	244,15
683,503	240,59
683,824	236,37
684,144	234,32
684,465	232,25
684,785	228,77
685,105	226,09
685,426	227,19
685,746	228,19
686,066	226,12
686,386	227,42
686,706	225,02
687,026	225,3
687,346	225,39
687,666	223,76
687,986	221,49
688,306	220,98
688,626	218,52
688,945	214,78
689,265	212,39
689,585	212,51
689,904	212,7
690,224	211,16
690,543	210,18
690,862	207,61
691,182	204,38
691,501	199,95
691,82	196,79
692,139	194,39
692,459	192,56
692,778	191,62
693,097	188,51
693,416	187,58
693,735	188,69
694,053	185,6
694,372	183,69
694,691	184,02
695,01	187,19
695,328	185,39
695,647	184,01
695,966	185,23
696,284	180,81
696,602	179,2
696,921	174,79
697,239	168,39
697,557	167,2
697,876	163,95
698,194	161,3
698,512	157,53
698,83	156,25
699,148	155,15
699,466	153,59
699,784	155,14
700,102	152,52
700,42	151,46
700,737	150,35
701,055	147,75
701,373	147,98
701,69	146,32
702,008	140,6
702,325	136,36
702,643	135,69
702,96	131,3
703,277	127,24
703,595	124,89
703,912	124,28
704,229	121,93
704,546	120,63
704,863	118,18
705,18	115,75
705,497	116,5
705,814	115,57
706,131	110,19
706,448	108,04
706,764	107,71
707,081	107,21
707,398	104,84
707,714	103,59
708,031	102,3
708,347	100,5
708,664	98,86
708,98	96,05
709,296	94,8
709,613	95,67
709,929	92,95
710,245	89,81
710,561	87,83
710,877	86,14
711,193	85,84
711,509	82,59
711,825	81,25
712,141	80
712,457	78,28
712,772	77,29
713,088	75,17
713,403	75,65
713,719	75,25
714,035	74,11
714,35	72,35
714,665	72,01
714,981	72,84
715,296	71,59
715,611	72,07
715,926	73,26
716,242	71,92
716,557	71,65
716,872	72,34
717,187	69,88
717,502	67,28
717,816	66,36
718,131	63,54
718,446	60,55
718,761	60,71
719,075	58,48
719,39	58,16
719,704	57,38
720,019	55,42
720,333	52,94
720,648	55,01
720,962	54,76
721,276	51,97
721,59	49,97
721,905	49,12
722,219	48,22
722,533	46,04
722,847	43,13
723,161	40,95
723,475	40,15
723,788	38,7
724,102	34,29
724,416	36,91
724,73	39,07
725,043	40,9
725,357	42,45
725,67	40,07
725,984	40,38
726,297	41,2
726,61	42,29
726,924	41,95
727,237	39,92
727,55	40,42
727,863	36,45
728,176	35,12
728,489	33,81
728,802	33,21
729,115	32,98
729,428	32,03
729,741	28,95
730,054	29,37
730,366	29,25
730,679	31,13
730,992	31,91
731,304	34,66
731,617	34,73
731,929	33,17
732,241	31,68
732,554	34,33
732,866	33,96
733,178	35,44
733,49	33,89
733,802	32,5
734,114	30,29
734,426	29,47
734,738	26,81
735,05	25,56
735,362	23,84
735,674	22,91
735,985	20,45
736,297	21,85
736,609	23,52
736,92	23,92
737,232	24,4
737,543	24,85
737,854	24,86
738,166	23,12
738,477	23,69
738,788	23,96
739,099	25,37
739,411	22,5
739,722	19,15
740,033	18,1
740,344	17,03
740,654	16,18
740,965	16,84
741,276	15,51
741,587	15,67
741,897	16,62
742,208	16,05
742,519	7,92
742,829	10,53
743,14	10,67
743,45	8,21
743,76	5,48
744,071	4,48
744,381	3,62
744,691	4,59
745,001	7,83
745,311	7,09
745,621	10,08
745,931	14,6
746,241	14,69
746,551	15,7
746,861	17,08
747,17	20,1
747,48	20,42
747,79	20,63
748,099	20,05
748,409	16,06
748,718	16,72
749,027	14,37
749,337	15,25
749,646	12,11
749,955	12,14
750,265	12,01
750,574	10,67
750,883	11,21
751,192	11,78
751,501	11
751,81	13,11
752,118	10,92
752,427	10,73
752,736	11,69
753,045	15,47
753,353	15,31
753,662	16,53
753,97	17,09
754,279	16,49
754,587	15,43
754,896	16,5
755,204	15,32
755,512	14,31
755,82	16,29
756,128	16,4
756,436	16,04
756,744	15,42
757,052	15,79
757,36	14,98
757,668	15,77
757,976	19,18
758,284	19,17
758,591	18,62
758,899	20,87
759,207	18,12
759,514	18,36
759,821	15,65
760,129	16,49
760,436	13,46
760,744	16,89
761,051	16,27
761,358	12,97
761,665	12,37
761,972	12,81
762,279	12,34
762,586	15,03
762,893	13,17
763,2	14,03
763,507	14,57
763,813	15,3
764,12	11,64
764,427	11,42
764,733	10,73
765,04	10,96
765,346	10,47
765,653	8,41
765,959	6,71
766,265	6,82
766,571	8,5
766,878	7,32
767,184	5,25
767,49	5,71
767,796	6,55
768,102	7,31
768,408	6,34
768,713	6,62
769,019	7,62
769,325	7,46
769,631	8,67
769,936	6,49
770,242	5,8
770,547	9,67
770,853	10,1
771,158	10,75
771,463	10,43
771,769	11,34
772,074	12,06
772,379	12,48
772,684	11,99
772,989	12,07
773,294	13,3
773,599	11,39
773,904	8,46
774,209	8,01
774,514	6,88
774,818	6,82
775,123	4,42
775,428	3,69
775,732	2,13
776,037	1,8
776,341	2,63
776,645	2,51
776,95	5,68
777,254	7,02
777,558	8,79
777,862	9,1
778,166	8,63
778,47	8,36
778,774	11,08
779,078	11,71
779,382	12,8
779,686	11,43
779,99	12,81
780,293	12,62
780,597	13,08
780,901	10,4
781,204	9,85
781,508	10,94
781,811	13,72
782,114	11,26
782,418	9,98
782,721	10
783,024	10,52
783,327	8,44
783,63	9,29
783,933	7,89
784,236	10,02
784,539	10,85
784,842	9
785,145	9,71
785,447	10,36
785,75	10,6
786,053	11,72
786,355	10,34
786,658	12,17
786,96	10,57
787,263	9,54
787,565	7,49
787,867	5,46
788,169	6,26
788,472	4,31
788,774	2,53
789,076	2,52
789,378	0,89
789,68	0,93
789,982	-0,15
790,283	0,37
790,585	2,44
790,887	3,43
791,188	4,48
791,49	3,86
791,792	2
792,093	2,11
792,394	2,52
792,696	5,05
792,997	4,45
793,298	3,47
793,6	4,21
793,901	3,07
794,202	1,59
794,503	2,71
794,804	3,56
795,105	6,66
795,405	7,84
795,706	8,52
796,007	6,77
796,308	7,51
796,608	6,68
796,909	4,15
797,209	5,15
797,51	6,39
797,81	5,06
798,11	4,45
798,411	3,8
798,711	3,56
799,011	2,83
799,311	3,15
799,611	5,14
799,911	4,45
800,211	5,11
800,511	6,62
800,811	7,43
801,111	8,07
801,41	7,23
801,71	6,12
802,009	5,54
802,309	5,55
802,608	3,13
802,908	1,47
803,207	4,62
803,507	7,11
803,806	4,63
804,105	5,11
804,404	4,01
804,703	6,78
805,002	8,1
805,301	9,53
805,6	10,68
805,899	12,1
806,198	13,91
806,496	15,67
806,795	14,45
807,094	16
807,392	12,97
807,691	13,56
807,989	10,99
808,287	13,4
808,586	12,98
808,884	11,64
809,182	11,41
809,48	7,99
809,778	4,04
810,076	3,78
810,374	-0,71
810,672	0,69
810,97	-0,37
811,268	1,53
811,566	-1,85
811,863	-2,01
812,161	-0,87
812,458	-0,43
812,756	1,57
813,053	1,85
813,351	1,26
813,648	3,33
813,945	3,67
814,242	4,87
814,54	3,08
814,837	1,55
815,134	1,99
815,431	2,65
815,728	1,45
816,025	2,24
816,321	0,23
816,618	0,85
816,915	0
817,211	0,59
817,508	0,55
817,804	0,82
818,101	3,39
818,397	2,5
818,694	0,67
818,99	2,59
819,286	2,43
819,582	3,5
819,878	2,41
820,174	5,83
820,47	4,95
820,766	3,91
821,062	3,02
821,358	2,93
821,654	0,58
821,949	-0,41
822,245	-1,45
822,541	-1,08
822,836	-0,32
823,132	0,41
823,427	-3,5
823,722	-5
824,018	-3,76
824,313	-1,93
824,608	-2,06
824,903	0,69
825,198	1,1
825,493	1,15
825,788	-0,96
826,083	1,62
826,378	1,1
826,672	3,28
826,967	5,79
827,262	5,6
827,556	5,59
827,851	3,6
828,145	3,3
828,44	5,01
828,734	4,82
829,028	4,98
829,323	2,3
829,617	3,01
829,911	5
830,205	2,67
830,499	4,08
830,793	2,67
831,087	3,69
831,381	3,25
831,674	3,86
831,968	5,37
832,262	5,59
832,555	5,17
832,849	6,34
833,142	3,28
833,436	3,88
833,729	2,11
834,022	2,85
834,315	4,3
834,609	3,94
834,902	2,4
835,195	1,21
835,488	-1,2
835,781	-0,56
836,074	-2,28
836,366	-2,39
836,659	-2,3
836,952	-2,64
837,244	-1,54
837,537	-3,49
837,829	-0,92
838,122	0
838,414	0,96
838,707	4,8
838,999	5,54
839,291	5,77
839,583	5,59
839,875	7,46
840,167	6,47
840,459	3,65
840,751	4,52
841,043	2,91
841,335	2,1
841,627	0,85
841,918	0,04
842,21	0,61
842,502	1,63
842,793	4,05
843,085	3,24
843,376	5,79
843,667	10,13
843,959	9,44
844,25	8,29
844,541	10,52
844,832	10,41
845,123	10,04
845,414	11,38
845,705	11,25
845,996	9,49
846,287	7,32
846,577	6,51
846,868	3,08
847,159	0,93
847,449	2,76
847,74	0,41
848,03	1,23
848,32	-0,6
848,611	-3,75
848,901	-4,24
849,191	-2,87
849,481	-0,09
849,771	-0,35
850,061	0,84
850,351	4,34
850,641	4,64
850,931	6,32
851,221	4,72
851,511	5,83
851,8	7,23
852,09	5,77
852,379	6,11
852,669	5,73
852,958	6,6
853,248	6,54
853,537	6,03
853,826	5,91
854,115	5,18
854,404	6,38
854,693	8,57
854,982	5,65
855,271	6,41
855,56	4,25
855,849	3,84
856,138	3,73
856,427	1,28
856,715	1,67
857,004	-0,12
857,292	0,32
857,581	-1,53
857,869	-2,96
858,157	-0,46
858,446	0,08
858,734	-0,33
859,022	-0,71
859,31	-1,25
859,598	1,28
859,886	1,15
860,174	1,46
860,462	1,17
860,75	2,62
861,037	0,14
861,325	-1,61
861,613	-1,8
861,9	-0,11
862,188	-0,71
862,475	0,78
862,763	1,79
863,05	0,12
863,337	0,93
863,624	-1,3
863,911	-2,48
864,199	-0,54
864,486	-0,3
864,772	1,3
865,059	1,57
865,346	5,15
865,633	3,09
865,92	0,77
866,206	2,56
866,493	2,42
866,779	4,76
867,066	5,98
867,352	7,41
867,639	8,42
867,925	8,12
868,211	8,64
868,497	4,79
868,783	4,67
869,069	6,13
869,355	4,64
869,641	5,2
869,927	5,07
870,213	6,6
870,499	5,54
870,784	4,12
871,07	3,39
871,356	2,79
871,641	2,75
871,926	3,05
872,212	0,8
872,497	0,24
872,782	0,62
873,068	0,48
873,353	-1,09
873,638	0,3
873,923	3,66
874,208	2,97
874,493	2,05
874,777	1,88
875,062	1,44
875,347	2,73
875,632	4,52
875,916	3,59
876,201	2,31
876,485	3,59
876,77	3,16
877,054	3,06
877,338	3,87
877,622	4,58
877,906	6,26
878,191	7,51
878,475	8,71
878,759	8,89
879,042	8,9
879,326	11,04
879,61	10,54
879,894	10,19
